Voltage_01 Voltage_02 Acc_x Acc_y Acc_z Gyro_x Gyro_y Gyro_z Time
5000
0.19 0.22 0.06 -0.99 9.72 0.03 -0.05 -0.02 17
0.20 0.20 0.05 -1.01 9.73 0.03 -0.05 -0.02 24
0.22 0.21 0.02 -1.00 9.73 0.03 -0.04 -0.02 31
0.21 0.21 0.01 -0.99 9.65 0.02 -0.04 -0.02 38
0.22 0.19 0.00 -0.99 9.77 0.02 -0.03 -0.02 46
0.23 0.16 0.05 -0.99 9.79 0.02 -0.02 -0.02 53
0.25 0.13 0.01 -1.00 9.68 0.03 -0.00 -0.02 60
0.23 0.14 0.61 -0.97 9.70 0.04 0.00 -0.02 67
0.24 0.13 0.06 -0.99 9.75 0.06 0.00 -0.02 74
0.23 0.12 0.10 -1.01 9.75 0.06 0.01 -0.03 81
0.25 0.08 0.00 -1.04 9.71 0.07 0.01 -0.02 89
0.26 0.07 0.01 -1.11 9.68 0.06 0.01 -0.03 96
0.28 0.05 -0.03 -1.05 9.75 0.06 0.03 -0.02 103
0.26 0.07 0.02 -1.06 9.76 0.05 0.04 -0.03 110
0.26 0.05 0.09 -1.08 9.76 0.05 0.04 -0.02 117
0.25 0.03 0.08 -1.06 9.78 0.05 0.04 -0.03 124
0.29 0.04 0.09 -1.12 9.73 0.05 0.03 -0.03 132
0.30 0.05 0.02 -1.08 9.72 0.05 0.03 -0.03 139
0.30 0.04 0.05 -1.06 9.81 0.06 0.04 -0.03 146
0.30 0.01 0.02 -1.10 9.83 0.07 0.03 -0.03 153
0.30 0.01 0.10 -1.02 9.86 0.08 0.04 -0.04 160
0.30 -0.01 0.09 -1.10 9.85 0.10 0.04 -0.04 167
0.29 0.00 0.01 -1.10 9.81 0.11 0.04 -0.04 175
0.30 0.01 0.07 -1.10 9.82 0.12 0.03 -0.05 182
0.30 -0.01 0.09 -1.15 9.81 0.12 0.03 -0.05 189
0.29 -0.03 0.05 -1.16 9.73 0.12 0.03 -0.05 196
0.28 -0.02 0.09 -1.16 9.80 0.13 0.03 -0.05 203
0.30 -0.00 0.12 -1.23 9.78 0.13 0.03 -0.05 210
0.32 -0.01 0.06 -1.81 9.77 0.14 0.03 -0.06 218
0.34 -0.03 0.11 -1.25 9.82 0.14 0.02 -0.06 225
0.34 -0.03 0.07 -1.22 9.85 0.15 0.03 -0.05 232
0.34 -0.03 0.06 -1.17 9.82 0.15 0.02 -0.05 239
0.34 -0.02 -0.05 -1.24 10.03 0.20 0.02 -0.04 246
0.34 -0.01 0.03 -1.27 10.03 0.19 0.00 -0.03 253
0.33 -0.01 -0.04 -1.25 10.16 0.22 -0.04 -0.02 261
0.35 -0.02 -0.05 -1.32 10.30 0.26 -0.10 -0.01 268
0.34 -0.02 0.24 -1.43 10.59 0.33 -0.19 -0.00 275
0.34 -0.03 0.45 -1.56 11.10 0.45 -0.32 -0.02 283
0.32 -0.02 0.60 -1.61 11.76 0.60 -0.41 -0.07 289
0.33 -0.03 0.78 -1.77 12.58 0.78 -0.40 -0.10 297
0.33 -0.02 0.76 -1.71 13.35 0.97 -0.35 -0.16 305
0.31 -0.02 0.86 -1.86 13.71 1.21 -0.49 -0.19 312
0.31 -0.03 1.38 -1.86 13.26 1.43 -0.72 -0.25 318
0.31 -0.03 1.15 -1.91 12.58 1.56 -0.89 -0.32 325
0.29 -0.02 1.20 -2.03 12.71 1.68 -1.07 -0.38 333
0.30 -0.02 1.37 -2.38 12.86 1.78 -1.24 -0.46 340
0.29 -0.02 1.84 -2.57 13.26 1.90 -1.40 -0.54 348
0.28 -0.02 2.40 -3.15 13.69 2.00 -1.61 -0.67 355
0.26 -0.02 3.55 -3.36 13.76 2.08 -1.85 -0.84 362
0.21 -0.02 3.76 -3.52 13.57 2.16 -1.98 -1.03 368
0.19 -0.02 3.36 -4.22 14.22 2.24 -2.11 -1.24 375
0.15 -0.00 2.87 -4.87 14.73 2.23 -2.26 -1.43 384
0.08 -0.01 3.69 -4.10 14.41 2.25 -2.44 -1.57 390
0.08 0.00 4.43 -4.82 14.51 2.21 -2.59 -1.76 398
0.06 -0.01 5.21 -5.29 14.48 2.08 -2.71 -1.95 404
0.04 -0.00 6.11 -5.01 14.09 1.81 -2.99 -2.22 411
0.04 -0.00 7.11 -3.70 12.54 1.56 -3.26 -2.46 418
0.02 -0.00 8.42 -3.00 11.41 1.27 -3.54 -2.64 425
0.01 -0.00 9.22 -4.22 11.16 0.91 -3.81 -2.69 433
0.00 0.00 12.44 -5.81 10.24 0.57 -3.95 -2.38 440
0.00 0.00 18.18 -5.13 7.68 0.55 -3.23 -0.88 447
0.00 0.00 19.78 -2.77 10.40 0.17 -1.42 0.18 454
0.00 0.00 17.19 -3.30 8.48 -0.31 -0.17 0.84 461
0.00 0.00 12.25 -3.52 8.18 -0.39 0.55 1.40 468
0.00 0.00 10.16 -3.79 7.94 -0.27 0.82 1.62 476
0.00 0.00 9.00 -3.29 7.51 -0.05 1.05 1.67 483
0.00 0.00 8.41 -2.51 7.59 0.08 1.24 1.59 489
0.00 0.00 7.52 -2.02 7.76 0.19 1.50 1.47 495
0.00 0.00 6.34 -1.57 8.01 0.23 1.74 1.26 501
0.00 0.00 5.41 -1.02 8.21 0.22 1.89 1.05 507
0.00 0.00 4.34 -0.62 8.30 0.17 2.05 0.86 514
0.00 0.00 3.45 -0.22 8.68 0.09 2.14 0.62 520
0.00 0.00 2.95 0.08 9.08 -0.01 2.17 0.39 526
0.00 -0.00 2.53 0.39 9.33 -0.15 2.18 0.20 532
0.00 0.00 2.24 0.80 9.69 -0.35 2.20 -0.04 539
0.00 0.00 2.13 0.97 9.90 -0.51 2.22 -0.21 545
-0.00 0.00 1.91 1.11 10.00 -0.70 2.26 -0.32 551
0.00 0.00 1.40 1.34 9.58 -0.84 2.31 -0.41 559
0.00 0.00 0.94 1.45 9.04 -0.95 2.36 -0.45 565
0.00 0.00 0.39 1.27 9.05 -0.99 2.44 -0.45 571
0.00 0.00 -0.03 0.89 9.28 -0.98 2.51 -0.42 577
0.00 0.00 -0.38 0.01 9.38 -0.96 2.53 -0.37 583
0.00 0.00 -0.86 0.51 9.52 -0.93 2.51 -0.29 589
0.00 0.00 -1.35 0.43 9.79 -0.87 2.44 -0.15 595
0.00 0.00 -1.96 0.40 9.90 -0.88 2.33 0.03 602
0.00 0.00 -2.38 0.29 9.99 -0.86 2.13 0.20 608
0.00 0.00 -2.35 0.21 10.10 -0.87 1.89 0.43 614
0.00 0.00 -1.95 -0.60 10.18 -0.90 1.67 0.73 621
0.00 0.00 -1.40 -0.34 10.24 -0.94 1.52 0.94 628
0.00 0.00 -1.06 -0.65 10.25 -0.99 1.42 1.20 635
0.00 0.00 -0.81 -0.89 10.17 -1.05 1.33 1.41 643
0.00 0.00 -0.47 -1.09 10.15 -1.08 1.21 1.66 650
0.00 0.00 -0.14 -1.16 10.08 -1.12 1.10 1.90 657
0.00 0.00 0.35 -1.19 10.10 -1.17 0.99 2.09 664
0.00 0.00 0.81 -1.46 10.00 -1.22 0.94 2.27 671
0.00 0.00 0.96 -1.70 9.81 -1.27 0.92 2.35 678
0.00 0.00 0.83 -1.87 9.57 -1.31 0.91 2.38 685
0.00 0.00 0.83 -1.99 9.33 -1.34 0.90 2.34 691
0.00 0.00 0.91 -2.02 9.17 -1.36 0.88 2.26 697
0.00 0.00 1.08 -1.95 9.01 -1.37 0.87 2.14 703
0.00 0.00 1.20 -1.83 9.04 -1.38 0.91 2.02 709
0.00 0.00 0.88 -1.82 9.29 -1.37 1.01 1.93 715
0.00 -0.00 0.34 -1.89 9.53 -1.37 1.12 1.84 721
0.00 0.00 -0.25 -1.86 9.92 -1.38 1.22 1.75 729
0.00 0.00 -0.95 -1.83 10.17 -1.41 1.27 1.69 735
0.00 0.00 -1.67 -1.75 10.64 -1.45 1.27 1.64 742
0.00 0.00 -2.19 -1.96 11.18 -1.52 1.21 1.61 749
0.00 0.00 -2.93 -2.28 11.48 -1.59 1.13 1.56 756
0.00 -0.00 -3.32 -2.68 11.47 -1.66 1.05 1.46 763
0.00 0.00 -3.77 -3.30 11.45 -1.76 1.00 1.31 771
0.00 0.00 -4.18 -4.18 11.27 -1.85 0.93 1.08 778
0.00 0.00 -4.31 -4.97 10.93 -1.93 0.89 0.77 785
0.00 0.00 -4.50 -5.81 10.47 -1.97 0.87 0.47 792
-0.00 0.00 -5.19 -6.85 10.00 -1.96 0.83 0.12 799
0.00 0.00 -5.73 -7.62 9.73 -1.88 0.74 -0.18 806
0.00 0.00 -6.18 -8.33 9.46 -1.76 0.57 -0.48 814
0.00 0.00 -6.06 -8.71 9.34 -1.64 0.44 -0.70 821
0.00 0.00 -5.88 -8.92 9.21 -1.55 0.37 -0.80 827
0.00 0.00 -5.93 -8.84 9.12 -1.49 0.35 -0.84 833
0.00 0.00 -6.23 -8.50 9.22 -1.45 0.29 -0.78 840
0.00 -0.00 -6.88 -8.19 9.07 -1.43 0.15 -0.68 846
0.00 0.00 -7.58 -7.89 8.66 -1.39 -0.11 -0.45 854
0.00 0.00 -9.45 -12.64 5.35 -1.24 -0.42 -0.17 861
0.00 0.00 -38.69 -20.20 16.04 0.08 -4.28 0.62 868
0.00 0.00 -11.51 -17.06 -0.26 0.50 -4.28 1.21 875
-0.00 0.04 -4.08 -19.01 10.88 1.55 -4.28 1.54 883
-0.01 0.09 -15.51 1.68 25.92 2.62 -3.98 2.51 890
-0.04 0.37 -10.02 1.15 19.62 2.76 -1.19 3.06 898
-0.05 0.55 -11.16 0.18 21.71 2.53 -0.82 2.56 905
-0.05 0.64 -11.09 -3.81 17.52 2.46 -1.01 1.53 912
-0.05 0.73 -8.66 -3.88 15.73 2.44 -0.68 0.83 919
-0.05 0.70 -1.32 -1.87 13.69 2.11 -0.06 0.65 926
-0.03 0.66 -1.08 -4.80 22.19 1.60 0.05 0.68 932
-0.04 0.61 -3.00 -1.36 10.75 0.04 -0.25 0.41 941
-0.01 0.54 -0.66 -2.50 9.72 0.06 -0.26 0.06 947
0.04 0.50 -0.02 -0.81 9.65 0.11 -0.13 0.05 954
0.05 0.49 -0.10 -1.19 9.34 0.02 -0.10 0.06 961
0.07 0.48 -0.31 -1.31 9.48 0.00 -0.04 0.03 968
0.09 0.47 0.08 -1.32 9.92 -0.04 0.00 0.03 975
0.08 0.47 0.22 -1.05 10.06 -0.03 0.02 0.03 983
0.08 0.46 0.23 -1.03 10.05 -0.00 0.02 0.03 990
0.08 0.39 0.27 -1.08 9.83 0.00 0.01 0.02 997
0.11 0.37 0.25 -1.07 9.80 -0.01 0.00 0.01 1004
0.15 0.36 0.11 -0.97 9.81 -0.03 0.01 0.01 1011
0.15 0.37 0.02 -0.84 9.83 -0.04 0.02 0.01 1018
0.16 0.37 0.01 -0.73 9.83 -0.03 0.03 0.01 1026
0.16 0.36 0.02 -0.77 9.84 -0.01 0.03 0.02 1033
0.15 0.36 0.10 -0.77 9.88 0.02 0.04 0.02 1040
0.16 0.34 0.13 -0.73 9.89 0.05 0.03 0.01 1047
0.20 0.32 0.10 -0.72 9.95 0.09 0.03 0.01 1054
0.19 0.28 0.02 -0.72 9.86 0.12 0.02 0.01 1061
0.20 0.25 0.03 -0.81 9.85 0.14 0.03 0.01 1069
0.20 0.23 0.06 -0.81 9.83 0.16 0.02 0.01 1076
0.20 0.21 0.03 -0.85 9.82 0.17 0.02 0.01 1083
0.21 0.21 0.11 -0.88 9.77 0.16 0.02 0.01 1090
0.22 0.19 0.16 -0.96 9.69 0.14 0.03 0.00 1097
0.21 0.15 0.22 -0.97 9.66 0.13 0.03 0.00 1104
0.22 0.06 0.20 -0.96 9.71 0.11 0.02 -0.01 1112
0.21 0.07 0.23 -0.95 9.67 0.10 0.02 -0.01 1119
0.22 0.07 0.20 -0.98 9.61 0.07 0.02 -0.02 1126
0.21 0.07 0.16 -0.95 9.69 0.07 0.03 -0.02 1133
0.22 0.06 0.12 -0.98 9.67 0.06 0.03 -0.03 1140
0.22 0.05 0.17 -0.97 9.71 0.06 0.02 -0.03 1147
0.21 0.03 0.10 -0.97 9.77 0.05 0.03 -0.03 1155
0.21 0.01 0.12 -0.97 9.71 0.05 0.02 -0.03 1162
0.22 0.02 0.13 -0.98 9.76 0.06 0.03 -0.02 1169
0.23 0.01 0.17 -0.99 9.75 0.06 0.02 -0.02 1176
0.23 -0.01 0.13 -0.97 9.76 0.07 0.02 -0.02 1183
0.22 0.01 0.16 -1.05 9.74 0.07 0.02 -0.02 1190
0.23 -0.00 0.14 -1.01 9.75 0.08 0.02 -0.02 1198
0.22 -0.00 0.11 -0.99 9.81 0.08 0.01 -0.02 1205
0.23 0.01 0.19 -1.07 9.68 0.08 0.01 -0.02 1212
0.25 -0.00 0.20 -1.07 9.60 0.06 0.00 -0.02 1219
0.24 -0.00 0.24 -1.09 9.50 0.04 -0.00 -0.03 1226
0.24 -0.00 0.20 -1.15 9.44 0.01 0.00 -0.03 1233
0.23 -0.01 0.25 -1.10 9.52 -0.01 0.01 -0.03 1241
0.24 0.00 0.27 -1.07 9.66 -0.01 -0.00 -0.04 1248
0.25 0.00 0.29 -1.04 9.74 0.00 -0.02 -0.05 1255
0.29 -0.00 0.27 -1.04 9.80 0.01 -0.03 -0.06 1262
0.29 -0.01 0.22 -1.02 9.83 0.03 -0.04 -0.06 1269
0.29 -0.03 0.20 -1.06 9.82 0.03 -0.05 -0.07 1276
0.28 -0.02 0.16 -1.11 9.65 0.04 -0.05 -0.07 1284
0.31 -0.01 0.14 -1.13 9.66 0.04 -0.06 -0.07 1291
0.32 0.01 0.06 -1.11 9.63 0.03 -0.05 -0.07 1298
0.34 0.00 0.04 -1.09 9.66 0.02 -0.04 -0.07 1305
0.33 -0.01 0.06 -1.10 9.76 0.02 -0.03 -0.06 1312
0.32 -0.02 0.14 -1.08 9.80 0.02 -0.03 -0.06 1319
0.31 -0.02 0.15 -1.11 9.80 0.04 -0.02 -0.06 1327
0.32 -0.03 0.10 -1.13 9.82 0.05 -0.03 -0.06 1334
0.35 -0.00 0.15 -1.09 9.82 0.06 -0.04 -0.06 1341
0.36 -0.02 0.06 -1.14 9.73 0.06 -0.04 -0.06 1348
0.35 -0.02 0.01 -1.17 9.75 0.07 -0.04 -0.06 1355
0.33 -0.02 0.09 -1.19 9.67 0.07 -0.04 -0.07 1362
0.35 -0.03 0.16 -1.17 9.81 0.08 -0.04 -0.07 1370
0.38 -0.01 0.12 -1.14 9.86 0.09 -0.05 -0.08 1377
0.40 -0.03 0.17 -1.19 9.82 0.10 -0.06 -0.08 1384
0.41 -0.03 0.14 -1.22 9.82 0.11 -0.07 -0.09 1391
0.39 -0.02 0.02 -1.21 9.84 0.12 -0.08 -0.09 1398
0.43 -0.02 0.11 -1.16 10.01 0.15 -0.07 -0.10 1406
0.39 -0.01 0.02 -1.24 9.97 0.18 -0.08 -0.10 1413
0.38 -0.00 0.05 -1.33 10.26 0.22 -0.09 -0.10 1420
0.39 -0.02 -0.01 -1.28 10.63 0.28 -0.12 -0.11 1428
0.40 -0.03 -0.02 -1.38 11.20 0.41 -0.19 -0.12 1435
0.40 -0.03 0.10 -1.46 11.43 0.59 -0.34 -0.14 1441
0.45 -0.03 0.65 -1.60 12.03 0.76 -0.41 -0.17 1449
0.49 -0.02 1.19 -1.54 12.36 1.01 -0.22 -0.24 1457
0.45 -0.02 0.16 -1.66 12.57 1.23 -0.05 -0.31 1464
0.47 -0.03 0.47 -1.63 12.92 1.39 -0.07 -0.31 1471
0.49 -0.03 0.55 -1.66 12.92 1.58 -0.18 -0.33 1478
0.48 -0.03 0.72 -1.79 13.15 1.74 -0.36 -0.36 1485
0.47 -0.02 0.85 -1.96 13.08 1.93 -0.53 -0.39 1492
0.47 -0.03 1.33 -2.25 13.18 2.12 -0.73 -0.44 1500
0.49 -0.02 1.10 -2.45 14.76 2.31 -0.90 -0.51 1507
0.49 -0.03 0.97 -2.60 15.40 2.56 -1.11 -0.55 1514
0.47 -0.02 1.21 -2.73 15.34 2.79 -1.37 -0.60 1521
0.40 -0.03 1.67 -2.81 14.50 3.00 -1.62 -0.67 1528
0.37 -0.03 2.12 -3.14 14.21 3.17 -1.77 -0.79 1536
0.35 -0.03 2.10 -3.52 15.27 3.30 -1.92 -0.92 1543
0.27 -0.01 3.87 -4.72 15.75 3.40 -2.31 -1.06 1550
0.20 -0.02 7.22 -6.17 15.50 3.41 -2.65 -1.35 1557
0.13 -0.01 9.64 -6.07 15.16 3.41 -2.69 -1.71 1563
0.09 -0.01 11.49 -6.63 15.67 3.31 -2.57 -2.21 1571
0.06 -0.01 14.70 -7.22 15.62 3.18 -2.50 -2.74 1579
0.03 -0.00 15.83 -6.69 15.09 2.95 -2.19 -3.26 1586
0.02 -0.00 13.80 -6.51 14.11 2.63 -1.71 -3.96 1593
0.02 -0.00 11.69 -4.26 12.47 2.25 -1.65 -4.28 1600
0.02 -0.00 9.56 -1.70 9.47 1.92 -1.95 -4.28 1606
0.00 0.00 9.33 0.87 6.94 1.65 -2.38 -4.28 1613
0.00 0.00 11.92 0.02 6.10 1.35 -2.80 -4.28 1620
0.00 0.00 16.77 -3.43 8.79 1.27 -2.08 -3.78 1628
0.00 0.00 18.42 0.35 12.11 0.39 -0.18 -2.95 1635
0.00 0.00 15.00 1.43 8.66 -0.54 0.96 -2.35 1642
0.00 0.00 9.46 0.58 7.96 -1.04 1.47 -1.76 1649
0.00 0.00 7.15 -0.81 7.61 -1.18 1.52 -1.39 1656
0.00 0.00 5.52 -1.24 6.57 -0.99 1.41 -1.07 1664
0.00 0.00 5.33 -1.07 6.09 -0.75 1.41 -0.84 1671
0.00 -0.00 5.17 -0.95 6.50 -0.53 1.61 -0.73 1678
0.00 0.00 4.32 -0.79 7.30 -0.41 1.93 -0.62 1685
0.00 0.00 3.36 -0.46 7.66 -0.35 2.12 -0.56 1692
0.00 0.00 1.92 -0.14 8.14 -0.35 2.21 -0.48 1699
0.00 0.00 0.88 0.13 8.77 -0.37 2.18 -0.38 1707
0.00 0.00 0.39 0.61 9.08 -0.41 2.10 -0.29 1714
0.00 0.00 0.50 1.27 9.22 -0.46 2.08 -0.18 1721
0.00 0.00 0.58 1.49 9.87 -0.56 2.17 -0.08 1728
0.00 0.00 0.46 1.52 10.72 -0.72 2.32 0.02 1735
0.00 0.00 -0.30 1.65 10.91 -0.89 2.39 0.13 1742
0.00 0.00 -1.15 1.78 10.66 -1.07 2.34 0.25 1750
0.00 0.00 -1.37 1.58 10.48 -1.17 2.25 0.39 1757
0.00 0.00 -1.39 1.27 10.63 -1.23 2.20 0.50 1764
0.00 0.00 -1.69 0.88 10.76 -1.25 2.23 0.61 1771
0.00 0.00 -2.04 0.31 11.17 -1.24 2.26 0.71 1778
0.00 0.00 -2.43 0.08 11.26 -1.24 2.26 0.79 1785
-0.00 0.00 -2.88 -0.01 11.32 -1.24 2.22 0.88 1793
0.00 0.00 -3.17 -0.18 11.22 -1.24 2.14 0.97 1800
0.00 0.00 -3.27 -0.18 10.83 -1.25 1.99 1.06 1807
0.00 0.00 -2.74 -0.64 10.95 -1.25 1.85 1.12 1814
0.00 0.00 -2.37 -0.98 11.15 -1.23 1.86 1.12 1821
0.00 0.00 -2.51 -0.77 11.16 -1.20 1.96 1.13 1828
-0.00 0.01 -3.10 -0.29 11.56 -1.17 2.05 1.16 1836
0.00 0.00 -3.76 0.23 11.99 -1.15 2.04 1.22 1843
0.00 0.00 -4.15 0.63 12.19 -1.19 1.88 1.36 1850
0.00 0.00 -3.88 0.91 12.15 -1.28 1.67 1.50 1857
0.00 0.00 -3.09 0.70 12.00 -1.41 1.43 1.68 1864
0.00 0.00 -2.34 0.47 11.66 -1.51 1.30 1.83 1871
0.00 0.00 -1.83 0.11 11.09 -1.60 1.28 1.91 1879
0.00 0.00 -1.91 -0.38 10.84 -1.62 1.33 1.96 1886
0.00 0.00 -2.35 -0.65 10.65 -1.61 1.36 1.97 1893
0.00 0.00 -2.97 -0.79 10.53 -1.57 1.35 1.95 1900
0.00 0.00 -2.93 -0.97 10.61 -1.55 1.25 1.92 1907
0.00 0.00 -2.60 -1.12 10.61 -1.54 1.18 1.88 1914
-0.00 0.01 -2.36 -1.38 10.37 -1.55 1.14 1.81 1922
0.00 0.00 -2.09 -1.85 10.22 -1.57 1.12 1.73 1929
0.00 0.00 -2.12 -2.36 10.09 -1.58 1.10 1.59 1936
0.00 0.00 -2.27 -2.78 9.91 -1.58 1.11 1.42 1943
0.00 0.00 -2.70 -3.01 9.22 -1.56 1.15 1.25 1950
-0.00 0.00 -3.06 -3.18 9.85 -1.54 1.19 1.05 1957
0.00 0.00 -4.21 -3.49 9.85 -1.52 1.19 0.85 1965
-0.00 0.00 -4.25 -3.89 9.81 -1.52 1.12 0.69 1972
0.00 0.00 -4.48 -4.38 9.61 -1.52 1.03 0.50 1979
0.00 0.00 -4.23 -4.82 9.52 -1.53 0.95 0.35 1986
0.00 0.00 -3.73 -5.37 9.43 -1.54 0.89 0.19 1993
-0.00 0.00 -3.53 -6.20 9.29 -1.52 0.88 0.07 2000
0.00 0.00 -3.71 -6.99 9.15 -1.46 0.88 0.02 2008
0.00 0.00 -4.03 -7.88 8.84 -1.38 0.87 -0.02 2015
0.00 0.00 -4.22 -8.59 8.57 -1.25 0.86 -0.03 2022
0.00 0.00 -4.53 -9.30 8.08 -1.13 0.87 -0.01 2029
-0.00 0.00 -5.11 -9.80 7.50 -1.00 0.87 0.05 2036
-0.00 0.01 -5.57 -9.95 7.23 -0.82 0.83 0.13 2043
0.00 0.00 -5.53 -9.54 7.24 -0.67 0.76 0.27 2051
0.00 0.00 -5.19 -8.93 7.39 -0.54 0.74 0.40 2058
0.00 0.00 -5.34 -7.95 7.22 -0.48 0.75 0.58 2065
0.00 0.00 -5.89 -6.72 6.75 -0.45 0.76 0.81 2072
0.00 0.00 -20.75 -21.56 21.60 0.37 -1.13 1.11 2079
-0.00 0.01 -24.17 -20.25 1.02 1.30 -4.28 2.09 2087
0.00 0.02 2.69 -9.60 -2.49 1.93 -4.28 1.89 2094
-0.00 0.15 -8.41 -4.61 19.09 3.07 -4.28 2.29 2102
-0.04 0.52 -13.15 3.14 31.88 3.66 -2.05 2.48 2109
-0.07 0.82 -10.48 -0.69 26.85 3.67 -1.34 1.88 2116
-0.07 0.99 -12.69 -6.53 21.11 3.90 -1.39 1.15 2123
-0.06 0.95 -6.42 -5.22 21.95 3.94 -1.08 0.46 2130
-0.05 0.89 -0.86 -3.18 16.16 1.19 -1.86 0.03 2138
-0.04 0.79 -0.69 -5.55 17.47 0.04 -0.89 0.14 2145
-0.03 0.73 -1.17 -2.14 11.98 0.09 -0.50 0.07 2152
-0.00 0.67 0.56 0.54 10.01 0.20 -0.33 0.09 2158
0.01 0.61 0.00 0.45 8.68 0.26 -0.32 0.09 2165
0.02 0.50 -0.31 -1.05 8.83 0.20 -0.27 0.07 2172
0.06 0.45 0.04 -2.00 9.32 0.09 -0.16 0.04 2180
0.11 0.44 0.02 -1.67 9.76 0.01 -0.08 0.02 2187
0.12 0.39 0.07 -1.20 9.83 -0.02 -0.03 0.02 2194
0.11 0.40 0.12 -1.08 10.08 -0.02 0.01 0.03 2201
0.12 0.40 0.25 -1.02 9.84 0.00 0.01 0.02 2208
0.12 0.40 0.25 -1.01 9.62 0.01 -0.01 0.01 2215
0.13 0.35 0.17 -1.01 9.70 -0.00 -0.02 0.01 2223
0.13 0.37 0.06 -0.90 9.76 -0.01 -0.02 0.01 2230
0.15 0.35 0.12 -0.85 9.81 0.00 -0.02 0.01 2237
0.17 0.34 0.03 -0.76 9.87 0.03 -0.01 0.01 2244
0.18 0.33 0.05 -0.84 9.88 0.05 -0.01 0.02 2251
0.21 0.31 0.10 -0.86 9.99 0.08 -0.01 0.02 2258
0.21 0.25 0.06 -0.85 10.00 0.11 -0.02 0.01 2266
0.21 0.18 -0.04 -0.85 9.92 0.14 -0.02 0.02 2273
0.21 0.15 -0.00 -0.84 9.88 0.16 -0.02 0.02 2280
0.22 0.18 0.11 -0.89 9.80 0.17 -0.01 0.02 2287
0.25 0.15 0.17 -0.90 9.70 0.18 -0.02 0.01 2294
0.26 0.15 0.08 -0.93 9.70 0.18 -0.03 0.01 2301
0.27 0.12 0.15 -0.99 9.66 0.17 -0.03 0.01 2309
0.26 0.11 0.09 -0.96 9.75 0.16 -0.04 0.00 2316
0.28 0.10 0.13 -1.05 9.63 0.15 -0.04 -0.01 2323
0.28 0.09 0.15 -1.09 9.57 0.13 -0.04 -0.01 2330
0.30 0.05 0.05 -1.08 9.60 0.10 -0.03 -0.01 2337
0.31 0.05 0.18 -1.15 9.53 0.09 -0.03 -0.01 2344
0.31 0.04 0.15 -1.09 9.58 0.07 -0.02 -0.02 2352
0.31 0.04 0.08 -1.09 9.63 0.05 -0.01 -0.03 2359
0.31 0.03 0.10 -1.08 9.65 0.04 -0.00 -0.03 2366
0.30 0.05 0.07 -1.08 9.74 0.03 -0.00 -0.02 2373
0.32 0.04 0.06 -1.12 9.66 0.02 0.00 -0.02 2380
0.31 0.02 0.08 -1.14 9.69 0.01 0.01 -0.02 2387
0.30 0.03 0.06 -1.11 9.74 0.01 0.01 -0.02 2395
0.30 0.02 0.09 -1.10 9.72 0.01 0.01 -0.02 2402
0.30 0.02 0.14 -1.09 9.78 0.02 0.01 -0.02 2409
0.29 0.02 0.16 -1.10 9.75 0.03 -0.00 -0.02 2416
0.31 0.02 0.14 -1.14 9.66 0.04 -0.01 -0.02 2423
0.31 0.01 0.04 -1.11 9.67 0.04 -0.01 -0.03 2430
0.31 -0.01 0.15 -1.14 9.64 0.03 -0.01 -0.02 2438
0.31 -0.01 0.12 -1.16 9.77 0.03 -0.02 -0.03 2445
0.30 -0.00 0.19 -1.15 9.72 0.03 -0.01 -0.03 2452
0.31 0.01 0.13 -1.15 9.80 0.03 -0.02 -0.03 2459
0.32 0.00 0.11 -1.14 9.65 0.04 -0.03 -0.03 2466
0.32 -0.02 0.14 -1.18 9.59 0.03 -0.03 -0.04 2473
0.32 -0.03 0.17 -1.19 9.64 0.02 -0.04 -0.04 2481
0.33 -0.01 0.13 -1.17 9.60 0.01 -0.04 -0.04 2488
0.34 -0.01 0.02 -1.19 9.66 0.01 -0.04 -0.04 2495
0.35 -0.00 0.02 -1.13 9.71 0.01 -0.04 -0.05 2502
0.37 -0.01 0.02 -1.15 9.74 0.02 -0.04 -0.04 2509
0.36 -0.01 0.07 -1.17 9.82 0.04 -0.04 -0.05 2516
0.37 -0.04 0.02 -1.15 9.82 0.06 -0.04 -0.05 2524
0.37 -0.03 0.10 -1.14 9.86 0.07 -0.05 -0.06 2531
0.40 -0.02 0.11 -1.16 9.78 0.09 -0.06 -0.05 2538
0.42 -0.00 0.11 -1.20 9.78 0.08 -0.09 -0.05 2545
0.40 -0.01 0.16 -1.02 9.79 0.09 -0.09 -0.06 2552
0.42 -0.03 0.03 -1.21 9.76 0.08 -0.09 -0.06 2560
0.42 -0.04 -0.02 -1.32 9.74 0.09 -0.09 -0.07 2567
0.40 -0.02 -0.08 -1.31 9.68 0.08 -0.08 -0.07 2574
0.41 -0.01 -0.15 -1.25 9.73 0.08 -0.06 -0.07 2581
0.43 -0.00 -0.01 -1.29 9.81 0.09 -0.05 -0.07 2588
0.45 -0.02 0.01 -1.29 9.93 0.11 -0.05 -0.07 2595
0.45 -0.01 0.08 -1.24 9.98 0.13 -0.05 -0.07 2603
0.45 -0.03 0.04 -1.28 9.81 0.15 -0.08 -0.07 2610
0.46 -0.01 -0.09 -1.48 9.87 0.16 -0.10 -0.08 2617
0.45 -0.01 -0.00 -1.41 9.93 0.17 -0.11 -0.08 2624
0.47 -0.02 -0.02 -1.46 9.82 0.19 -0.11 -0.09 2631
0.45 -0.03 -0.15 -1.45 9.96 0.22 -0.14 -0.08 2638
0.45 -0.04 -0.54 -1.47 10.18 0.26 -0.19 -0.08 2646
0.41 -0.03 -0.12 -1.49 10.30 0.32 -0.26 -0.08 2654
0.44 -0.03 -0.19 -1.60 10.40 0.38 -0.35 -0.09 2661
0.46 -0.02 0.19 -1.64 10.67 0.47 -0.42 -0.09 2668
0.49 -0.02 0.51 -1.56 10.75 0.57 -0.49 -0.11 2675
0.51 -0.04 0.38 -1.73 10.82 0.67 -0.46 -0.14 2682
0.50 -0.04 0.30 -1.77 11.31 0.78 -0.35 -0.18 2690
0.49 -0.02 -0.05 -1.75 11.87 0.91 -0.28 -0.23 2697
0.48 -0.02 -0.03 -1.92 12.45 1.05 -0.28 -0.23 2704
0.50 -0.03 -0.12 -1.94 12.99 1.26 -0.24 -0.24 2711
0.49 -0.02 -0.32 -1.91 13.62 1.48 -0.23 -0.24 2718
0.51 -0.03 0.01 -1.98 14.03 1.77 -0.21 -0.23 2725
0.46 -0.04 0.08 -2.04 14.95 2.10 -0.23 -0.25 2733
0.45 -0.03 0.34 -2.21 15.87 2.39 -0.35 -0.27 2740
0.43 -0.02 1.03 -2.36 16.52 2.77 -0.55 -0.31 2747
0.42 -0.02 1.55 -2.21 16.93 3.17 -0.81 -0.38 2754
0.35 -0.02 1.60 -3.03 15.82 3.42 -1.11 -0.49 2761
0.37 -0.02 2.84 -2.79 15.61 3.67 -1.47 -0.57 2768
0.28 -0.03 4.28 -3.86 16.17 3.85 -1.72 -0.78 2775
0.18 -0.01 4.03 -4.14 15.77 3.97 -1.97 -0.97 2783
0.17 -0.01 4.42 -4.85 15.56 3.97 -2.21 -1.19 2790
0.10 -0.01 4.72 -5.22 15.48 3.89 -2.39 -1.42 2796
0.07 -0.01 6.10 -5.89 15.77 3.76 -2.47 -1.62 2803
0.03 -0.00 8.00 -6.86 15.58 3.60 -2.54 -1.93 2810
0.02 -0.00 10.15 -6.71 15.25 3.29 -2.48 -2.25 2819
0.02 -0.00 10.09 -6.40 14.83 2.93 -2.23 -2.69 2826
0.01 -0.00 9.60 -4.59 12.78 2.57 -2.29 -3.12 2832
0.03 -0.00 9.96 -2.43 10.23 2.20 -2.55 -3.41 2839
0.00 0.00 9.90 -0.07 7.82 1.89 -2.91 -3.66 2846
0.00 0.00 10.72 -0.16 7.26 1.51 -3.30 -3.71 2853
0.00 0.00 21.75 0.33 3.01 1.36 -3.38 -2.84 2861
0.00 0.00 18.93 -0.67 13.69 0.97 -2.11 -1.34 2868
0.00 0.00 20.64 1.55 8.93 -0.06 -0.63 -0.61 2875
0.00 0.00 15.68 1.25 7.88 -0.60 0.09 0.13 2882
0.00 0.00 12.68 0.65 7.60 -0.93 0.35 0.51 2889
0.00 0.00 11.04 0.11 7.11 -0.98 0.44 0.71 2896
0.00 0.00 10.60 0.53 6.50 -0.95 0.60 0.73 2904
0.00 0.00 10.38 0.94 6.60 -0.96 1.02 0.64 2911
0.00 0.00 9.41 1.23 7.18 -1.03 1.59 0.49 2918
0.00 0.00 7.94 1.44 7.75 -1.17 2.06 0.34 2925
0.00 0.00 6.08 1.48 8.07 -1.35 2.46 0.19 2932
0.00 0.00 3.77 1.37 8.40 -1.51 2.65 0.08 2939
0.00 0.00 2.90 1.22 8.78 -1.64 2.73 0.01 2947
0.00 0.00 1.69 0.73 9.16 -1.70 2.68 -0.03 2954
0.00 -0.00 1.29 0.51 9.48 -1.73 2.55 -0.06 2961
0.00 0.00 1.59 0.29 9.76 -1.75 2.44 -0.07 2968
0.00 0.00 1.84 0.24 9.97 -1.78 2.45 -0.07 2975
0.00 0.00 2.10 0.17 10.20 -1.82 2.60 -0.05 2982
0.00 0.00 1.90 0.00 10.42 -1.86 2.81 -0.03 2990
0.00 0.00 1.48 -0.25 10.78 -1.89 2.97 -0.02 2997
0.00 -0.00 0.86 -0.64 11.27 -1.90 3.10 -0.01 3004
0.00 0.00 0.00 -0.90 11.64 -1.88 3.16 0.02 3011
0.00 0.00 -0.78 -0.97 12.06 -1.83 3.18 0.07 3018
0.00 0.00 -1.40 -0.95 12.59 -1.79 3.15 0.17 3025
0.00 0.00 -2.02 -0.84 13.25 -1.77 3.08 0.34 3033
0.00 0.00 -2.54 -0.79 13.90 -1.80 3.01 0.55 3040
0.00 0.00 -3.15 -0.78 14.36 -1.85 2.93 0.86 3047
0.00 0.00 -3.83 -0.99 14.60 -1.91 2.82 1.20 3054
0.00 0.00 -4.41 -1.32 14.53 -1.96 2.63 1.65 3061
0.00 0.00 -4.41 -1.89 14.39 -1.97 2.41 2.15 3068
0.00 0.00 -4.02 -2.23 14.08 -1.96 2.12 2.57 3076
-0.00 0.01 -2.92 -2.76 14.14 -1.92 1.85 3.02 3083
0.00 0.00 -2.18 -2.97 14.01 -1.88 1.69 3.41 3090
0.00 0.00 -1.51 -3.10 13.82 -1.85 1.57 3.64 3097
0.00 0.00 -1.30 -3.21 13.73 -1.83 1.44 3.86 3104
0.00 0.00 -1.14 -3.36 13.37 -1.81 1.35 3.98 3111
0.00 0.00 -0.85 -3.42 13.16 -1.79 1.22 4.02 3119
0.00 0.00 -0.74 -3.57 12.94 -1.79 1.14 3.98 3126
-0.00 0.00 -0.88 -3.78 12.70 -1.80 1.09 3.84 3133
-0.00 0.00 -1.45 -4.17 11.87 -1.83 1.04 3.58 3140
0.00 0.00 -1.32 -4.68 10.49 -1.92 0.95 3.25 3147
0.00 0.00 -0.85 -5.44 10.73 -2.01 0.73 2.72 3154
-0.00 0.00 -0.33 -6.36 9.91 -2.07 0.64 2.07 3162
-0.00 0.00 -0.11 -7.34 9.33 -2.08 0.71 1.43 3169
0.00 0.00 -0.41 -8.24 8.71 -2.05 0.85 0.58 3176
0.00 0.00 -0.72 -8.75 8.70 -1.97 0.99 -0.15 3183
0.00 0.00 -1.16 -8.95 8.87 -1.87 1.11 -0.91 3190
0.00 0.00 -1.50 -8.89 9.16 -1.79 1.19 -1.52 3197
0.00 0.00 -2.04 -9.01 9.30 -1.71 1.26 -1.92 3205
0.00 -0.00 -3.02 -9.18 9.28 -1.61 1.31 -2.28 3212
0.00 0.00 -3.98 -9.41 9.08 -1.56 1.35 -2.52 3219
0.00 0.00 -5.55 -9.75 8.94 -1.47 1.33 -2.65 3226
0.00 0.00 -7.74 -10.18 8.65 -1.37 1.19 -2.70 3233
0.00 0.00 -8.90 -10.65 8.44 -1.23 0.97 -2.62 3240
0.00 0.00 -9.89 -10.95 7.98 -1.05 0.50 -2.40 3248
0.00 -0.00 -9.35 -10.63 7.67 -0.87 0.02 -2.06 3255
0.00 0.00 -7.48 -10.17 7.54 -0.64 -0.36 -1.72 3262
0.00 0.00 -7.41 -10.20 7.34 -0.43 -0.50 -1.30 3269
0.00 0.00 -44.10 -19.24 16.30 0.76 -4.05 -0.44 3276
-0.00 0.01 -27.25 -13.56 3.50 1.06 -4.28 0.88 3284
-0.00 0.04 -1.04 -10.58 9.81 1.47 -4.28 1.40 3291
-0.00 0.05 -3.93 -3.80 13.62 2.01 -4.28 1.97 3298
-0.03 0.32 -18.87 7.28 31.66 2.67 -3.19 2.68 3306
-0.05 0.70 -16.84 4.25 21.18 2.70 -1.50 2.30 3313
-0.07 0.88 -15.07 -2.77 21.26 3.14 -1.81 1.09 3320
-0.05 0.89 -10.23 -5.67 15.51 3.05 -1.45 -0.00 3328
-0.05 0.89 -1.39 -3.26 19.45 2.61 -0.49 -0.25 3335
-0.05 0.83 4.75 -1.66 14.72 0.44 -0.80 0.01 3341
-0.06 0.79 1.44 -2.73 14.03 0.06 -0.44 0.27 3349
-0.03 0.76 -1.23 -0.86 9.86 0.18 -0.49 0.15 3355
-0.01 0.69 -0.99 -0.23 8.33 0.10 -0.32 0.03 3362
-0.00 0.65 -0.50 -1.25 9.24 0.02 -0.16 0.01 3369
0.05 0.64 -0.27 -1.90 10.46 -0.04 -0.05 0.01 3377
0.03 0.64 -0.30 -1.36 10.40 0.00 -0.00 0.02 3384
0.04 0.59 -0.04 -0.92 10.07 0.05 0.04 0.03 3391
0.07 0.55 0.31 -1.03 10.06 0.06 0.04 0.03 3398
0.10 0.53 0.36 -1.83 9.87 0.05 0.01 0.03 3405
0.12 0.50 0.18 -1.09 9.82 0.03 -0.00 0.03 3412
0.16 0.49 -0.03 -0.86 9.80 0.04 -0.01 0.03 3420
0.18 0.47 -0.03 -0.71 9.90 0.06 -0.00 0.03 3427
0.18 0.45 -0.07 -0.78 9.87 0.09 0.01 0.04 3434
0.16 0.42 -0.00 -0.86 9.75 0.11 0.01 0.04 3441
0.18 0.38 0.15 -0.78 9.89 0.13 0.01 0.04 3448
0.20 0.41 0.06 -0.80 9.95 0.15 -0.01 0.04 3456
0.22 0.33 0.00 -0.81 9.98 0.18 -0.02 0.03 3463
0.22 0.30 0.01 -0.84 9.89 0.20 -0.02 0.03 3470
0.21 0.24 0.02 -0.88 9.89 0.21 -0.02 0.03 3477
0.20 0.25 0.03 -0.96 9.84 0.22 -0.01 0.03 3484
0.22 0.19 0.08 -1.01 9.72 0.22 -0.01 0.02 3491
0.24 0.16 0.07 -1.03 9.59 0.20 -0.01 0.01 3499
0.26 0.14 0.03 -1.05 9.67 0.19 -0.01 0.01 3506
0.23 0.12 0.04 -1.04 9.73 0.18 0.01 0.00 3513
0.23 0.06 0.19 -1.10 9.69 0.17 0.01 -0.00 3520
0.22 0.06 0.19 -1.08 9.66 0.16 0.01 -0.00 3527
0.23 0.04 0.18 -1.14 9.60 0.15 0.01 -0.01 3534
0.25 0.02 0.22 -1.12 9.57 0.13 0.02 -0.01 3542
0.25 0.03 0.27 -1.15 9.63 0.12 0.02 -0.02 3549
0.24 0.02 0.25 -1.16 9.65 0.11 0.02 -0.03 3556
0.23 0.03 0.21 -1.18 9.63 0.10 0.02 -0.03 3563
0.22 0.05 0.16 -1.20 9.53 0.09 0.02 -0.03 3570
0.22 0.04 0.24 -1.20 9.60 0.07 0.02 -0.04 3577
0.24 0.02 0.21 -1.23 9.67 0.06 0.02 -0.04 3585
0.24 0.02 0.20 -1.21 9.64 0.06 0.02 -0.05 3592
0.25 0.02 0.19 -1.23 9.63 0.05 0.03 -0.05 3599
0.24 0.02 0.18 -1.21 9.65 0.04 0.03 -0.05 3606
0.25 0.01 0.16 -1.22 9.71 0.04 0.03 -0.05 3613
0.25 0.02 0.17 -1.22 9.72 0.04 0.03 -0.05 3620
0.28 0.00 0.14 -1.23 9.71 0.03 0.03 -0.06 3628
0.27 -0.01 0.14 -1.25 9.66 0.03 0.04 -0.05 3635
0.27 -0.01 0.13 -1.25 9.60 0.02 0.04 -0.05 3642
0.28 -0.00 0.09 -1.27 9.61 0.01 0.05 -0.05 3649
0.28 0.00 0.13 -1.29 9.62 0.01 0.06 -0.05 3656
0.28 0.01 0.17 -1.25 9.70 -0.00 0.06 -0.05 3663
0.29 -0.00 0.17 -1.29 9.75 -0.01 0.06 -0.05 3671
0.30 -0.01 0.18 -1.28 9.65 -0.01 0.06 -0.05 3678
0.30 -0.02 0.22 -1.27 9.68 -0.02 0.06 -0.05 3685
0.29 -0.01 0.26 -1.23 9.72 -0.01 0.05 -0.05 3692
0.29 0.00 0.23 -1.23 9.81 -0.00 0.04 -0.06 3699
0.30 0.01 0.21 -1.23 9.83 0.02 0.03 -0.06 3706
0.31 -0.00 0.23 -1.25 9.81 0.03 0.02 -0.06 3714
0.33 -0.01 0.24 -1.22 9.78 0.04 0.02 -0.06 3721
0.33 0.00 0.17 -1.21 9.70 0.05 0.01 -0.06 3728
0.31 -0.01 0.17 -1.24 9.69 0.05 -0.00 -0.06 3735
0.32 -0.01 0.13 -1.32 9.73 0.05 -0.01 -0.06 3742
0.35 -0.00 0.18 -1.34 9.68 0.04 -0.02 -0.05 3749
0.36 -0.00 0.18 -1.33 9.65 0.04 -0.02 -0.05 3757
0.35 -0.01 0.20 -1.36 9.67 0.03 -0.03 -0.05 3764
0.36 -0.03 0.22 -1.31 9.66 0.03 -0.03 -0.06 3771
0.34 -0.00 0.23 -1.35 9.66 0.02 -0.04 -0.06 3778
0.36 0.00 0.24 -1.33 9.65 0.02 -0.05 -0.06 3785
0.39 0.00 0.20 -1.35 9.59 0.02 -0.05 -0.07 3792
0.38 -0.01 0.18 -1.35 9.75 0.02 -0.04 -0.07 3800
0.38 -0.01 0.23 -1.34 9.69 0.03 -0.04 -0.07 3807
0.37 -0.01 0.12 -1.36 9.79 0.04 -0.05 -0.08 3814
0.36 0.00 0.10 -1.35 9.77 0.04 -0.04 -0.08 3821
0.37 0.01 0.09 -1.37 9.82 0.06 -0.05 -0.07 3828
0.40 -0.01 0.19 -1.29 9.95 0.08 -0.06 -0.08 3835
0.40 -0.01 0.11 -1.37 10.00 0.12 -0.07 -0.08 3843
0.40 -0.02 0.04 -1.40 10.21 0.15 -0.09 -0.08 3850
0.37 -0.02 0.11 -1.43 10.21 0.20 -0.11 -0.08 3858
0.41 -0.02 0.07 -1.51 10.59 0.26 -0.14 -0.08 3865
0.41 -0.03 -0.01 -1.49 10.89 0.37 -0.19 -0.08 3872
0.43 -0.03 0.21 -1.52 11.46 0.49 -0.23 -0.09 3878
0.43 -0.03 0.25 -1.61 12.02 0.70 -0.21 -0.11 3887
0.42 -0.04 0.45 -1.71 12.54 0.92 -0.07 -0.15 3893
0.39 -0.03 0.28 -1.63 12.75 1.09 -0.09 -0.16 3901
0.40 -0.03 0.56 -1.75 13.32 1.31 -0.20 -0.16 3908
0.41 -0.02 0.83 -1.73 14.24 1.51 -0.36 -0.20 3915
0.39 -0.02 1.22 -1.96 14.28 1.79 -0.53 -0.24 3922
0.39 -0.03 1.43 -2.12 14.30 2.07 -0.77 -0.31 3930
0.38 -0.03 1.84 -2.43 13.74 2.25 -1.04 -0.40 3937
0.37 -0.01 2.57 -2.65 13.76 2.39 -1.27 -0.50 3944
0.37 -0.01 3.00 -3.01 14.04 2.54 -1.49 -0.66 3951
0.31 -0.01 3.74 -3.84 14.89 2.63 -1.68 -0.87 3958
0.29 -0.01 4.49 -4.06 14.74 2.74 -1.95 -1.07 3965
0.23 -0.02 3.98 -4.23 14.94 2.83 -2.06 -1.32 3973
0.16 -0.01 3.12 -4.81 15.71 2.90 -2.17 -1.49 3980
0.08 -0.01 4.07 -4.77 15.58 2.96 -2.40 -1.66 3986
0.09 -0.01 5.97 -4.61 15.55 2.98 -2.64 -1.90 3993
0.08 -0.01 7.34 -5.79 16.25 2.92 -2.80 -2.17 4000
0.05 -0.01 8.22 -5.01 15.32 2.82 -3.10 -2.54 4007
0.04 -0.00 8.36 -5.01 14.80 2.64 -3.36 -2.86 4015
0.02 -0.00 9.30 -3.61 14.36 2.50 -3.68 -3.19 4022
0.02 -0.00 8.83 -2.29 13.17 2.31 -3.85 -3.48 4029
0.02 -0.00 9.13 -1.42 11.73 2.07 -4.08 -3.69 4036
0.00 0.00 10.72 -1.28 10.23 1.81 -4.23 -3.81 4043
0.00 0.00 15.97 -1.20 7.74 1.55 -3.94 -3.53 4050
0.00 0.00 19.38 -0.60 11.08 1.29 -1.85 -2.43 4058
0.00 0.00 20.63 1.03 10.89 0.39 0.34 -2.09 4065
0.00 0.00 13.97 0.02 9.50 -0.20 1.55 -1.76 4072
0.00 0.00 8.40 -1.00 8.34 -0.36 1.86 -1.47 4079
0.00 0.00 6.29 -1.75 7.73 -0.26 1.71 -1.27 4086
0.00 0.00 5.99 -1.48 7.23 -0.06 1.46 -1.08 4093
0.00 0.00 6.56 -0.54 7.34 0.03 1.43 -0.97 4101
0.00 0.00 6.97 0.18 7.63 0.04 1.63 -0.90 4108
0.00 0.00 6.73 0.95 7.94 -0.01 1.96 -0.83 4115
-0.00 0.00 5.87 1.53 8.04 -0.10 2.22 -0.74 4122
0.00 0.00 4.83 1.92 8.09 -0.21 2.46 -0.69 4129
0.00 0.00 3.90 2.28 8.21 -0.31 2.61 -0.59 4136
0.00 0.00 3.09 2.49 9.36 -0.41 2.73 -0.52 4144
-0.00 0.00 3.14 2.72 10.34 -0.57 2.79 -0.46 4151
-0.00 0.00 3.28 2.94 11.07 -0.77 2.82 -0.38 4158
0.00 0.00 2.75 3.13 11.18 -1.01 2.84 -0.32 4165
0.00 0.00 1.92 3.06 11.08 -1.18 2.82 -0.26 4172
0.00 0.00 1.13 2.86 10.84 -1.30 2.79 -0.23 4179
0.00 0.00 0.50 2.48 10.89 -1.33 2.77 -0.22 4187
0.00 0.00 -0.09 2.10 11.26 -1.33 2.78 -0.26 4194
-0.00 0.00 -0.76 1.90 11.53 -1.31 2.82 -0.30 4201
0.00 -0.00 -1.70 1.81 11.84 -1.30 2.87 -0.36 4208
0.00 0.00 -2.54 1.77 12.22 -1.29 2.87 -0.38 4215
0.00 0.00 -3.39 1.92 12.28 -1.27 2.81 -0.37 4222
0.00 0.00 -3.93 1.68 12.16 -1.27 2.73 -0.30 4230
-0.00 0.00 -4.33 1.37 12.29 -1.25 2.65 -0.21 4237
-0.00 0.01 -4.66 1.02 12.51 -1.22 2.60 -0.08 4244
0.00 0.00 -4.94 0.84 12.77 -1.19 2.57 0.06 4251
0.00 0.00 -5.48 0.69 13.07 -1.17 2.46 0.26 4258
0.00 0.00 -5.85 0.83 12.96 -1.16 2.27 0.51 4265
0.00 0.00 -5.44 0.83 12.83 -1.20 1.98 0.76 4273
0.00 0.00 -4.39 0.53 12.67 -1.24 1.71 1.03 4280
0.00 0.00 -3.47 0.33 12.28 -1.29 1.55 1.26 4287
0.00 0.00 -2.58 0.04 11.86 -1.34 1.47 1.43 4294
0.00 0.00 -2.22 -0.29 11.64 -1.35 1.46 1.60 4301
0.00 0.00 -2.03 -0.64 11.44 -1.35 1.43 1.71 4308
0.00 0.00 -1.69 -0.89 11.09 -1.33 1.36 1.83 4316
0.00 0.00 -1.10 -0.99 11.01 -1.32 1.25 1.93 4323
0.00 0.00 -0.33 -0.97 10.90 -1.32 1.13 2.02 4330
0.00 0.00 0.23 -0.98 10.40 -1.32 1.09 2.11 4337
0.00 0.00 0.44 -0.93 10.02 -1.34 1.13 2.16 4344
0.00 0.00 0.29 -1.07 9.81 -1.36 1.18 2.19 4352
0.00 0.00 0.10 -1.24 9.49 -1.38 1.19 2.18 4359
-0.00 0.00 -0.13 -1.14 9.37 -1.41 1.17 2.15 4366
0.00 0.00 -0.46 -1.29 9.29 -1.44 1.13 2.09 4373
0.00 0.00 -1.08 -1.31 9.01 -1.46 1.11 1.99 4380
0.00 0.00 -1.62 -1.57 8.82 -1.50 1.09 1.77 4387
0.00 0.00 -1.96 -2.26 8.85 -1.53 1.09 1.45 4395
0.00 0.00 -2.27 -3.12 9.06 -1.60 1.18 1.10 4402
0.00 0.00 -2.66 -4.27 9.46 -1.66 1.36 0.64 4409
0.00 0.00 -3.85 -6.06 9.46 -1.70 1.57 0.17 4416
0.00 0.00 -5.87 -7.29 9.04 -1.67 1.75 -0.20 4423
0.00 0.00 -7.59 -8.95 8.54 -1.55 1.78 -0.59 4430
0.00 0.00 -8.72 -9.97 8.17 -1.36 1.71 -0.85 4438
0.00 0.00 -16.05 -18.44 5.94 -1.06 1.27 -1.04 4445
-0.00 0.01 -48.92 -19.54 6.73 0.05 -2.62 -0.46 4453
0.00 0.01 -30.88 -24.12 1.00 0.55 -4.28 0.25 4460
0.00 0.02 -24.36 -35.79 7.44 1.15 -4.28 1.03 4467
-0.01 0.08 -27.08 -36.02 9.85 2.25 -4.28 1.98 4474
-0.05 0.45 -25.27 -11.30 27.48 3.73 -1.30 3.51 4482
-0.06 0.83 -18.99 0.17 25.26 3.99 -0.08 2.54 4489
-0.06 0.91 -17.02 -8.83 47.03 3.10 -1.31 0.63 4496
-0.06 0.85 1.76 -2.14 13.56 0.14 -1.54 -0.27 4503
-0.05 0.86 0.04 -6.67 13.71 -0.11 -0.57 0.12 4510
-0.02 0.81 0.58 -0.33 10.77 0.17 -0.34 0.19 4517
-0.02 0.75 -0.28 1.02 8.11 0.20 -0.36 0.11 4524
0.03 0.67 -0.74 -0.73 8.14 0.13 -0.26 0.10 4531
0.04 0.66 -0.24 -2.07 9.35 -0.01 -0.08 0.08 4538
0.06 0.61 0.34 -1.14 9.70 -0.06 -0.02 0.06 4545
0.06 0.62 0.09 -0.97 10.55 -0.02 -0.01 0.06 4552
0.10 0.57 -0.06 -0.94 10.24 0.05 -0.00 0.08 4559
0.11 0.53 0.16 -0.92 9.84 0.11 0.00 0.08 4567
0.12 0.48 0.55 -1.06 9.65 0.09 -0.02 0.08 4574
0.13 0.46 0.37 -1.13 9.70 0.06 -0.04 0.05 4581
0.14 0.45 0.24 -0.92 9.77 0.03 -0.05 0.04 4588
0.13 0.43 0.11 -0.84 9.77 0.03 -0.05 0.04 4595
0.14 0.40 0.08 -0.74 9.96 0.04 -0.05 0.04 4602
0.15 0.41 -0.03 -0.76 9.98 0.07 -0.05 0.04 4610
0.16 0.41 0.03 -0.74 9.83 0.09 -0.05 0.05 4617
0.18 0.37 0.01 -0.82 9.89 0.11 -0.05 0.04 4624
0.18 0.35 0.06 -0.80 9.91 0.13 -0.06 0.04 4631
0.18 0.28 -0.04 -0.74 9.92 0.15 -0.06 0.04 4638
0.17 0.29 0.02 -0.90 9.86 0.17 -0.05 0.04 4645
0.18 0.26 -0.02 -0.95 9.78 0.19 -0.05 0.04 4653
0.19 0.24 0.08 -0.88 9.67 0.18 -0.04 0.03 4660
0.20 0.22 0.11 -0.91 9.68 0.16 -0.03 0.03 4667
0.21 0.16 0.22 -0.97 9.76 0.15 -0.03 0.03 4674
0.22 0.15 0.23 -0.99 9.69 0.13 -0.03 0.02 4681
0.21 0.13 0.17 -0.94 9.56 0.11 -0.03 0.01 4688
0.22 0.16 0.10 -1.03 9.64 0.09 -0.03 0.00 4696
0.22 0.18 0.19 -0.99 9.61 0.08 -0.03 -0.01 4703
0.22 0.10 0.22 -1.01 9.67 0.08 -0.03 -0.01 4710
0.22 0.08 0.17 -1.03 9.64 0.07 -0.03 -0.02 4717
0.21 0.05 0.13 -1.02 9.64 0.06 -0.03 -0.02 4724
0.20 0.08 0.06 -1.05 9.61 0.05 -0.03 -0.02 4731
0.20 0.08 0.09 -1.05 9.55 0.03 -0.02 -0.03 4739
0.22 0.07 0.09 -1.02 9.54 0.02 -0.02 -0.02 4746
0.21 0.09 0.10 -1.06 9.68 0.02 -0.02 -0.02 4753
0.21 0.07 0.07 -1.07 9.69 0.01 -0.02 -0.03 4760
0.19 0.09 0.06 -1.03 9.67 0.00 -0.02 -0.02 4767
0.19 0.09 0.12 -1.06 9.78 0.01 -0.03 -0.02 4774
0.20 0.08 0.09 -1.02 9.70 0.01 -0.03 -0.02 4782
0.21 0.06 0.12 -1.07 9.64 0.01 -0.04 -0.03 4789
0.22 0.06 0.07 -1.09 9.58 0.00 -0.05 -0.03 4796
0.21 0.03 0.02 -1.07 9.62 -0.01 -0.05 -0.03 4803
0.21 0.05 0.02 -1.08 9.70 -0.01 -0.05 -0.04 4810
0.22 0.05 0.00 -1.07 9.70 -0.01 -0.05 -0.04 4817
0.20 0.05 -0.01 -1.08 9.72 -0.01 -0.04 -0.03 4825
0.23 0.03 -0.01 -1.05 9.78 -0.01 -0.03 -0.03 4832
0.22 0.04 -0.61 -1.07 9.82 -0.01 -0.03 -0.03 4839
0.21 0.05 0.01 -1.01 9.80 -0.01 -0.02 -0.03 4846
0.21 0.07 0.07 -1.08 9.81 0.00 -0.03 -0.03 4853
0.23 0.06 0.08 -1.08 9.75 0.01 -0.04 -0.03 4860
0.26 0.06 0.05 -1.07 9.83 0.03 -0.04 -0.04 4868
0.28 0.04 -0.60 -1.08 9.70 0.04 -0.05 -0.04 4875
0.27 0.03 0.01 -1.13 9.78 0.05 -0.06 -0.04 4882
0.27 0.00 0.00 -1.06 9.75 0.06 -0.06 -0.05 4889
0.31 0.00 0.00 -1.11 9.80 0.06 -0.06 -0.05 4896
0.31 0.00 -0.02 -1.09 9.79 0.07 -0.06 -0.05 4903
0.34 -0.01 -0.12 -1.12 9.87 0.08 -0.07 -0.06 4911
0.35 -0.01 -0.08 -1.14 9.91 0.11 -0.09 -0.05 4918
0.31 -0.01 0.00 -1.08 10.02 0.13 -0.11 -0.05 4925
0.36 -0.03 -0.14 -1.10 10.10 0.16 -0.13 -0.05 4933
0.41 -0.03 -0.02 -1.19 9.94 0.20 -0.17 -0.05 4939
0.39 -0.01 -0.04 -1.36 10.13 0.22 -0.22 -0.07 4947
0.39 -0.02 -0.09 -1.44 10.49 0.25 -0.26 -0.08 4955
0.38 -0.02 0.18 -1.19 10.83 0.29 -0.33 -0.10 4962
0.43 -0.03 -0.06 -1.37 10.93 0.35 -0.45 -0.11 4969
0.41 -0.02 -0.63 -1.44 11.49 0.47 -0.69 -0.11 4976
0.41 -0.02 -1.23 -1.35 12.45 0.65 -1.07 -0.06 4983
0.43 0.00 -1.24 -1.32 12.60 0.81 -1.35 -0.01 4990
0.41 -0.02 -0.34 -1.58 13.57 1.04 -1.40 0.01 4998
0.37 -0.01 0.29 -1.61 13.85 1.25 -1.04 -0.06 5005
0.38 -0.04 -0.46 -1.49 14.41 1.49 -1.08 -0.08 5011
0.35 -0.03 0.20 -1.77 16.16 1.75 -1.34 -0.07 5019
0.36 -0.03 0.28 -1.44 16.89 2.05 -1.66 -0.13 5026
0.36 -0.02 0.33 -2.04 16.75 2.35 -2.11 -0.12 5033
0.36 -0.03 1.80 -2.01 15.38 2.51 -2.49 -0.19 5041
0.27 -0.02 1.10 -2.27 15.80 2.65 -2.74 -0.28 5048
0.19 -0.02 1.52 -2.64 17.14 2.80 -3.09 -0.40 5054
0.13 -0.01 1.34 -2.65 17.56 2.93 -3.37 -0.51 5061
0.12 -0.01 1.21 -2.60 17.31 3.09 -3.66 -0.61 5068
0.09 -0.00 0.78 -2.81 17.94 3.18 -3.92 -0.72 5076
0.10 -0.01 0.88 -2.86 18.43 3.22 -4.17 -0.80 5083
0.05 -0.00 1.41 -3.56 19.61 3.14 -4.28 -0.84 5091
0.06 -0.01 2.78 -3.95 19.40 2.96 -4.28 -0.95 5097
0.07 -0.01 5.24 -3.73 17.58 2.73 -4.28 -1.03 5104
0.05 -0.00 7.38 -2.84 16.13 2.44 -4.28 -1.03 5112
0.06 -0.00 9.27 -1.92 15.31 2.06 -4.28 -1.03 5120
0.02 -0.00 10.73 -2.24 13.78 1.71 -4.28 -0.95 5127
0.00 0.00 16.14 -5.02 9.12 1.55 -4.28 -0.34 5133
0.00 0.00 22.37 -2.68 10.57 1.77 -4.14 1.19 5140
0.00 0.00 24.42 -0.13 9.65 1.15 -0.88 1.83 5147
0.00 0.00 17.83 -1.12 9.78 0.68 0.48 2.18 5154
0.00 0.00 10.21 -0.73 9.14 0.45 1.08 2.35 5161
0.00 0.00 6.31 -0.30 9.30 0.36 1.03 2.26 5169
0.00 0.00 5.08 0.46 9.06 0.23 0.70 2.01 5176
0.00 0.00 5.38 1.53 8.72 0.05 0.54 1.58 5183
0.00 0.00 6.03 1.89 8.75 -0.22 0.69 1.03 5190
0.00 0.00 5.93 1.90 9.12 -0.49 1.13 0.48 5197
0.00 0.00 5.36 1.76 9.16 -0.67 1.61 -0.15 5204
0.00 0.00 4.49 1.68 9.09 -0.84 1.97 -0.67 5212
0.00 0.00 3.78 1.71 9.13 -0.95 2.31 -1.19 5219
0.00 0.00 3.45 1.67 8.99 -1.04 2.55 -1.61 5226
0.00 0.00 3.00 1.53 8.86 -1.10 2.82 -1.91 5233
-0.00 0.00 2.62 1.44 9.02 -1.14 3.13 -2.16 5240
0.01 0.00 2.08 1.39 9.43 -1.18 3.40 -2.30 5248
0.00 0.00 1.23 1.17 9.92 -1.23 3.64 -2.34 5255
0.00 0.00 0.57 0.87 10.65 -1.29 3.75 -2.26 5262
0.00 0.00 -0.29 0.86 11.17 -1.38 3.71 -2.11 5269
0.00 0.00 -1.06 0.47 11.35 -1.45 3.54 -1.87 5276
0.00 0.00 -0.89 0.04 12.20 -1.51 3.33 -1.64 5283
0.00 0.00 -0.13 -0.52 11.90 -1.56 3.13 -1.41 5291
0.00 0.00 0.31 -0.75 11.89 -1.54 3.06 -1.23 5298
0.00 0.00 0.82 -1.02 11.88 -1.48 3.13 -1.14 5305
0.00 0.00 1.11 -1.53 12.16 -1.40 3.30 -1.13 5312
0.00 0.00 0.75 -1.53 12.67 -1.29 3.47 -1.23 5319
0.01 -0.00 -0.24 -1.19 13.05 -1.17 3.66 -1.31 5326
0.00 0.00 -1.31 -0.68 13.59 -1.07 3.78 -1.43 5334
0.00 0.00 -2.66 -0.26 14.11 -0.99 3.83 -1.51 5341
0.00 0.00 -4.02 0.43 14.59 -0.93 3.79 -1.56 5348
0.00 0.00 -5.02 1.09 14.85 -0.91 3.74 -1.51 5355
-0.00 0.00 -6.36 1.71 14.93 -0.93 3.62 -1.44 5362
0.01 -0.00 -7.66 2.10 14.93 -0.97 3.43 -1.24 5369
0.01 0.00 -8.62 2.30 14.70 -1.01 3.21 -1.02 5377
0.00 -0.00 -8.91 2.22 14.45 -1.06 2.88 -0.69 5384
0.00 0.00 -8.46 2.32 14.21 -1.11 2.57 -0.30 5391
0.00 0.00 -7.73 2.38 13.61 -1.19 2.28 0.05 5398
0.00 0.00 -6.98 2.39 13.09 -1.27 2.07 0.48 5405
0.00 0.00 -6.49 2.28 12.54 -1.35 1.94 0.81 5412
0.00 0.00 -6.18 2.10 11.69 -1.44 1.81 1.14 5420
0.00 0.00 -6.08 1.67 11.12 -1.48 1.71 1.38 5427
0.00 0.00 -5.88 1.31 10.07 -1.51 1.64 1.49 5434
0.00 0.00 -4.90 1.04 9.30 -1.53 1.55 1.50 5441
-0.00 0.01 -4.12 0.99 8.79 -1.54 1.49 1.43 5448
-0.00 0.01 -3.44 1.24 8.29 -1.56 1.54 1.28 5455
-0.00 0.01 -3.26 1.21 8.26 -1.59 1.61 1.07 5463
-0.00 0.00 -3.65 0.83 9.19 -1.63 1.67 0.89 5470
-0.00 0.01 -4.10 0.21 9.00 -1.66 1.68 0.69 5477
-0.00 0.01 -4.72 -1.01 9.58 -1.71 1.67 0.54 5484
0.00 0.01 -6.15 -2.39 9.81 -1.76 1.63 0.44 5491
-0.00 0.01 -7.57 -4.10 9.79 -1.78 1.49 0.37 5498
-0.00 0.01 -8.62 -5.82 9.91 -1.76 1.36 0.35 5506
-0.00 0.00 -9.72 -7.73 9.79 -1.66 1.22 0.37 5513
-0.00 0.01 -10.45 -9.05 9.43 -1.55 1.08 0.44 5520
-0.00 0.01 -10.90 -9.66 9.12 -1.40 0.91 0.54 5527
0.00 0.02 -10.77 -9.71 8.71 -1.25 0.74 0.66 5534
-0.00 0.01 -10.66 -9.56 8.15 -1.16 0.61 0.76 5541
-0.00 0.01 -10.19 -9.16 7.61 -1.06 0.46 0.86 5549
0.00 0.00 -42.24 -28.65 26.24 0.10 -2.83 1.20 5556
-0.00 0.02 -30.49 -23.83 -0.65 0.71 -4.28 1.68 5564
0.00 0.04 -12.41 -34.96 3.36 1.76 -4.28 1.47 5571
0.01 0.12 -24.08 -6.51 40.05 3.18 -4.28 2.05 5578
-0.05 0.51 -18.94 -3.59 29.78 3.76 -1.09 2.52 5585
-0.06 0.72 -12.72 -0.40 26.58 3.19 -0.73 1.63 5593
-0.06 0.77 -10.19 -4.28 23.85 2.61 -0.90 0.59 5600
-0.06 0.74 -1.71 -4.99 18.69 0.89 -1.16 0.13 5607
-0.05 0.72 1.07 -2.00 12.07 0.15 -0.62 0.38 5614
0.01 0.64 0.76 -1.35 10.30 0.15 -0.59 0.33 5621
-0.01 0.60 -0.83 -0.42 9.04 0.11 -0.59 0.20 5627
0.03 0.57 -1.58 -1.54 8.83 -0.01 -0.45 0.12 5635
0.06 0.55 -0.99 -2.26 10.00 -0.08 -0.23 0.07 5642
0.08 0.56 0.56 -1.43 10.69 -0.04 -0.11 0.04 5650
0.10 0.56 -0.00 -0.97 10.63 0.05 -0.13 0.03 5656
0.15 0.50 -0.34 -0.97 9.76 0.10 -0.12 0.04 5663
0.15 0.47 -0.11 -1.20 9.58 0.07 -0.10 0.05 5670
0.13 0.47 -0.06 -1.34 9.69 0.02 -0.07 0.04 5678
0.17 0.42 0.01 -1.12 9.77 0.01 -0.06 0.04 5685
0.19 0.42 -0.01 -0.98 9.83 0.00 -0.05 0.03 5692
0.25 0.43 -0.10 -0.97 9.88 0.02 -0.04 0.03 5699
0.26 0.40 -0.14 -0.91 9.77 0.04 -0.03 0.03 5706
0.25 0.41 -0.14 -0.87 9.75 0.06 -0.02 0.03 5713
0.24 0.40 -0.16 -0.91 9.88 0.08 -0.01 0.03 5721
0.26 0.35 -0.13 -0.90 9.94 0.11 -0.00 0.03 5728
0.28 0.31 -0.05 -0.91 9.97 0.14 -0.01 0.03 5735
0.31 0.27 -0.06 -0.99 9.87 0.15 -0.01 0.03 5742
0.31 0.23 -0.09 -0.98 9.83 0.16 -0.02 0.03 5749
0.31 0.15 -0.04 -0.99 9.78 0.16 -0.01 0.02 5756
0.28 0.19 0.01 -1.01 9.78 0.15 -0.01 0.02 5764
0.28 0.15 0.01 -1.06 9.74 0.14 -0.01 0.01 5771
0.29 0.16 0.60 -1.07 9.64 0.14 -0.01 0.00 5778
0.29 0.16 0.01 -1.08 9.63 0.12 -0.01 -0.00 5785
0.28 0.12 0.05 -1.08 9.65 0.10 -0.01 -0.01 5792
0.27 0.09 0.02 -1.13 9.59 0.09 -0.01 -0.01 5799
0.27 0.08 0.03 -1.13 9.67 0.07 -0.00 -0.01 5807
0.28 0.08 0.00 -1.14 9.73 0.06 0.00 -0.02 5814
0.27 0.09 0.02 -1.13 9.66 0.06 0.00 -0.03 5821
0.30 0.04 0.00 -1.12 9.71 0.05 0.01 -0.03 5828
0.28 0.03 0.01 -1.08 9.73 0.06 0.01 -0.03 5835
0.26 0.05 0.00 -1.14 9.66 0.06 0.01 -0.04 5842
0.25 0.03 0.00 -1.14 9.58 0.05 0.01 -0.04 5850
0.26 0.02 0.00 -1.15 9.58 0.03 0.00 -0.04 5857
0.28 0.04 -0.02 -1.20 9.65 0.02 0.01 -0.04 5864
0.28 0.05 0.02 -1.20 9.70 0.02 0.01 -0.04 5871
0.29 0.04 0.01 -1.17 9.65 0.01 0.01 -0.04 5878
0.28 0.03 -0.02 -1.19 9.65 0.01 0.01 -0.04 5885
0.28 0.03 -0.00 -1.21 9.57 0.01 0.01 -0.04 5893
0.28 0.03 -0.00 -1.18 9.59 -0.00 0.01 -0.04 5900
0.28 0.02 -0.59 -1.24 9.68 -0.00 0.01 -0.05 5907
0.26 0.01 -0.01 -1.20 9.76 -0.00 0.01 -0.04 5914
0.27 0.02 -0.02 -1.14 9.73 -0.00 0.01 -0.05 5921
0.28 0.02 -0.03 -1.16 9.77 0.01 0.00 -0.05 5928
0.26 0.02 0.02 -1.14 9.74 0.02 0.00 -0.05 5936
0.26 0.03 0.05 -1.22 9.84 0.03 -0.00 -0.05 5943
0.30 0.02 0.01 -1.20 9.78 0.05 -0.01 -0.06 5950
0.31 0.01 -0.01 -1.23 9.69 0.05 -0.01 -0.06 5957
0.31 -0.00 -0.09 -1.21 9.64 0.05 -0.01 -0.06 5964
0.30 0.02 -0.04 -1.23 9.59 0.05 -0.01 -0.06 5971
0.34 0.01 -0.03 -1.23 9.69 0.04 -0.00 -0.06 5979
0.33 0.02 -0.06 -1.26 9.64 0.03 -0.01 -0.06 5986
0.36 0.01 -0.02 -1.28 9.67 0.03 -0.00 -0.06 5993
0.34 0.00 -0.04 -1.29 9.70 0.01 0.00 -0.06 6000
0.36 -0.03 -0.08 -1.24 9.66 0.00 0.01 -0.05 6007
0.35 -0.01 -0.10 -1.25 9.70 0.00 0.01 -0.05 6014
0.37 0.01 0.02 -1.26 9.81 0.01 0.00 -0.05 6022
0.36 0.01 -0.02 -1.20 9.83 0.03 -0.00 -0.05 6029
0.38 -0.01 -0.03 -1.23 9.82 0.05 -0.01 -0.05 6036
0.37 -0.01 -0.07 -1.21 9.86 0.08 -0.02 -0.05 6043
0.37 -0.04 0.01 -1.25 9.84 0.09 -0.04 -0.05 6050
0.36 -0.02 -0.09 -1.28 9.83 0.10 -0.06 -0.05 6057
0.38 0.00 -0.01 -1.35 9.82 0.11 -0.08 -0.05 6065
0.46 -0.01 -0.00 -1.31 9.75 0.11 -0.10 -0.06 6072
0.45 -0.01 0.04 -1.34 9.69 0.12 -0.12 -0.06 6079
0.45 -0.03 -0.09 -1.43 9.77 0.12 -0.13 -0.07 6086
0.48 -0.03 -0.01 -1.43 9.74 0.12 -0.13 -0.08 6093
0.48 -0.02 -0.06 -1.47 9.87 0.12 -0.13 -0.09 6100
0.50 -0.02 -0.12 -1.43 9.83 0.13 -0.13 -0.10 6108
0.51 -0.02 -0.24 -1.52 9.44 0.15 -0.14 -0.10 6115
0.53 -0.01 -0.35 -1.36 10.17 0.17 -0.16 -0.10 6123
0.56 -0.04 -0.10 -1.46 10.37 0.20 -0.18 -0.10 6130
0.58 -0.04 -0.35 -1.46 10.45 0.27 -0.25 -0.09 6137
0.50 -0.04 -0.27 -1.48 10.73 0.35 -0.37 -0.08 6145
0.47 -0.03 -0.33 -1.47 11.40 0.47 -0.53 -0.06 6152
0.48 -0.03 -0.08 -1.62 11.51 0.59 -0.65 -0.06 6159
0.50 -0.04 0.72 -1.82 11.76 0.73 -0.68 -0.10 6166
0.50 -0.04 0.86 -1.80 12.06 0.89 -0.55 -0.18 6172
0.47 -0.03 0.15 -1.88 12.60 1.08 -0.53 -0.25 6180
0.47 -0.03 0.18 -1.87 13.45 1.25 -0.63 -0.26 6188
0.49 -0.02 0.50 -1.97 14.30 1.49 -0.76 -0.30 6195
0.48 -0.02 1.00 -2.12 16.31 1.75 -0.94 -0.36 6202
0.50 -0.03 0.98 -2.26 17.22 2.14 -1.19 -0.40 6209
0.44 -0.04 0.69 -2.28 17.01 2.57 -1.50 -0.46 6216
0.34 -0.02 1.42 -2.78 16.70 2.85 -1.73 -0.52 6223
0.35 -0.02 3.68 -3.14 15.43 3.10 -2.11 -0.66 6231
0.26 -0.01 6.35 -3.72 15.22 3.21 -2.48 -0.97 6238
0.24 -0.01 7.54 -5.23 14.78 3.24 -2.84 -1.33 6245
0.17 -0.01 9.81 -5.97 15.08 3.24 -3.16 -1.81 6252
0.13 -0.01 10.70 -5.54 14.74 3.25 -3.18 -2.34 6259
0.11 -0.01 10.95 -6.29 15.10 3.20 -3.25 -2.81 6266
0.08 -0.01 10.76 -7.10 16.11 3.13 -3.33 -3.36 6274
0.06 -0.01 11.35 -6.68 16.14 2.97 -3.46 -3.86 6281
0.07 -0.01 11.41 -3.42 14.69 2.74 -3.75 -4.28 6288
0.05 -0.00 10.47 -1.29 13.87 2.48 -3.85 -4.28 6295
0.04 -0.00 10.40 0.02 13.33 2.04 -4.00 -4.28 6301
0.01 -0.00 11.81 -0.33 11.14 1.69 -4.07 -4.28 6309
0.00 0.00 16.53 -3.06 8.25 1.53 -3.78 -4.18 6316
0.00 -0.00 32.15 -2.16 8.45 1.70 -2.35 -2.52 6323
0.00 0.00 23.41 0.72 12.62 1.10 0.63 -1.04 6330
0.00 0.00 17.39 0.00 9.81 0.23 2.33 -0.23 6337
0.00 0.00 8.90 -0.85 10.94 -0.21 2.72 0.66 6344
0.00 0.00 4.96 -1.22 10.90 -0.52 2.32 1.14 6351
0.00 0.00 3.96 -1.44 9.96 -0.67 1.58 1.42 6359
0.00 0.00 4.35 -1.08 9.48 -0.75 1.11 1.41 6366
0.00 0.00 5.80 -0.86 9.39 -0.85 1.06 1.24 6373
0.01 -0.00 6.35 -0.64 9.39 -0.94 1.39 0.90 6380
-0.00 0.00 5.80 -0.46 9.34 -1.04 1.81 0.48 6387
0.00 0.00 4.60 -0.34 9.47 -1.09 2.24 0.15 6394
-0.00 0.01 3.30 -0.29 9.58 -1.12 2.52 -0.20 6402
0.00 0.00 2.40 -0.23 9.43 -1.13 2.66 -0.43 6409
-0.00 0.00 1.70 0.35 9.90 -1.09 2.81 -0.63 6416
0.00 -0.00 1.55 0.56 10.64 -1.08 2.97 -0.74 6423
0.00 0.00 1.06 1.03 11.01 -1.12 3.12 -0.72 6430
0.00 0.00 0.30 1.35 11.34 -1.18 3.21 -0.55 6437
0.00 0.00 -0.36 1.45 11.71 -1.26 3.18 -0.28 6445
0.00 0.00 -1.26 1.48 11.74 -1.34 3.03 0.15 6452
0.00 0.00 -1.80 1.40 11.64 -1.39 2.83 0.66 6459
0.00 0.00 -2.03 1.20 11.68 -1.41 2.57 1.09 6466
0.00 0.00 -1.82 0.94 11.65 -1.40 2.38 1.56 6473
0.00 0.00 -1.72 0.83 11.66 -1.39 2.29 1.90 6480
0.00 -0.00 -1.97 0.79 11.81 -1.39 2.24 2.21 6488
0.00 0.00 -2.03 0.31 12.30 -1.40 2.20 2.44 6495
0.00 0.00 -1.91 -0.01 12.63 -1.47 2.11 2.58 6502
0.00 0.00 -1.64 -0.31 13.13 -1.55 1.99 2.69 6509
0.00 0.00 -1.28 -0.51 13.18 -1.66 1.90 2.80 6516
0.01 -0.00 -0.85 -0.92 13.16 -1.77 1.82 2.85 6523
0.01 -0.00 -0.53 -1.34 12.99 -1.84 1.79 2.89 6531
0.00 -0.00 -0.36 -1.71 12.74 -1.89 1.80 2.92 6538
0.00 -0.00 -0.43 -2.19 12.39 -1.91 1.83 2.95 6545
0.00 0.00 -0.58 -2.56 12.03 -1.89 1.84 2.98 6552
0.00 0.00 -0.63 -2.92 11.69 -1.84 1.82 3.01 6559
-0.00 0.00 -0.37 -3.28 11.40 -1.78 1.79 3.04 6566
-0.00 0.00 -0.02 -3.65 11.30 -1.70 1.78 3.06 6574
0.00 0.00 0.01 -3.81 11.16 -1.61 1.79 3.06 6581
0.00 0.00 0.10 -3.96 11.23 -1.55 1.81 3.05 6588
0.00 0.00 -0.11 -4.15 11.27 -1.51 1.83 2.99 6595
-0.00 0.00 -0.82 -4.56 11.12 -1.50 1.84 2.86 6602
-0.00 0.01 -1.50 -4.81 10.77 -1.51 1.78 2.63 6609
0.00 0.00 -2.14 -5.18 10.58 -1.57 1.71 2.33 6617
0.00 0.00 -2.92 -5.53 10.05 -1.65 1.66 1.87 6624
0.00 0.00 -3.76 -5.80 9.57 -1.76 1.61 1.37 6631
-0.00 0.00 -4.60 -6.23 8.99 -1.85 1.57 0.71 6638
-0.00 0.00 -5.51 -7.30 8.42 -1.93 1.53 -0.02 6645
-0.00 0.01 -6.21 -7.26 7.77 -1.97 1.46 -0.66 6652
0.00 0.00 -6.34 -7.96 7.51 -1.98 1.38 -1.34 6660
-0.00 0.00 -6.47 -8.80 6.78 -1.97 1.37 -1.85 6667
0.00 0.00 -7.29 -9.79 7.12 -1.95 1.42 -2.33 6674
0.00 0.00 -8.69 -10.47 6.97 -1.90 1.45 -2.65 6681
0.00 0.00 -10.75 -11.17 6.56 -1.80 1.36 -2.79 6688
-0.00 0.00 -12.29 -11.80 6.14 -1.67 1.08 -2.75 6696
0.00 0.00 -12.75 -12.30 6.08 -1.45 0.73 -2.54 6703
-0.00 0.00 -12.22 -12.34 5.91 -1.16 0.34 -2.12 6711
0.00 0.00 -11.12 -11.56 5.54 -0.90 0.07 -1.56 6717
0.00 0.00 -9.71 -10.48 4.89 -0.62 -0.06 -1.03 6724
0.00 0.00 -8.84 -9.11 4.21 -0.37 -0.06 -0.35 6731
0.00 0.00 -15.96 -17.00 7.45 0.21 -0.65 0.46 6739
-0.00 0.02 -18.98 -10.92 0.26 2.00 -4.28 2.15 6747
0.01 0.12 2.77 -5.57 -1.76 2.45 -4.28 1.96 6753
-0.05 0.65 -44.94 7.02 78.29 4.28 -4.28 2.37 6761
-0.08 1.16 -15.89 0.10 38.29 4.19 -3.29 2.25 6768
-0.08 1.22 -22.09 -11.99 32.63 4.28 -2.37 1.43 6775
-0.08 1.09 -12.04 -8.93 37.80 2.56 -2.50 0.52 6782
-0.06 0.99 -4.22 -5.38 7.06 -0.25 -1.01 0.23 6789
-0.02 0.97 -0.51 -7.09 10.81 0.18 -0.54 0.20 6797
-0.01 0.86 0.76 2.74 9.52 0.34 -0.44 0.21 6803
0.07 0.70 -0.41 1.90 8.31 0.53 -0.54 0.15 6810
0.09 0.64 -1.23 -3.30 7.51 0.37 -0.44 0.11 6817
0.16 0.59 -0.61 -2.37 9.51 0.15 -0.13 0.06 6824
0.19 0.52 -0.25 -0.63 10.32 0.10 -0.02 0.03 6832
0.20 0.48 0.10 -0.70 10.92 0.19 -0.00 0.02 6839
0.26 0.41 -0.00 -0.90 9.88 0.25 -0.02 0.03 6846
0.33 0.38 -0.00 -1.35 9.35 0.21 -0.01 0.04 6853
0.38 0.30 0.26 -1.08 9.67 0.13 0.02 0.03 6860
0.40 0.29 0.11 -0.93 9.77 0.11 0.02 0.02 6867
0.41 0.27 -0.11 -0.79 9.75 0.10 0.02 0.02 6875
0.42 0.30 0.00 -0.74 9.85 0.11 0.04 0.02 6882
0.40 0.26 -0.03 -0.73 9.82 0.12 0.05 0.03 6889
0.40 0.22 -0.04 -0.75 9.87 0.14 0.06 0.03 6896
0.40 0.21 0.02 -0.79 9.89 0.15 0.05 0.03 6903
0.40 0.17 0.05 -0.76 9.99 0.17 0.05 0.03 6910
0.39 0.15 0.02 -0.89 10.04 0.19 0.05 0.03 6918
0.39 0.11 0.02 -0.86 9.83 0.20 0.05 0.02 6925
0.39 0.06 0.01 -0.90 9.80 0.19 0.06 0.03 6932
0.37 0.08 0.02 -0.96 9.67 0.17 0.07 0.02 6939
0.38 0.07 0.15 -1.02 9.63 0.15 0.08 0.02 6946
0.36 0.06 0.17 -1.03 9.62 0.14 0.09 0.01 6953
0.35 0.04 0.13 -1.07 9.59 0.13 0.09 0.00 6961
0.35 0.04 0.17 -1.04 9.60 0.11 0.10 0.00 6968
0.35 0.02 0.23 -1.11 9.57 0.10 0.09 0.00 6975
0.34 0.05 0.34 -1.10 9.57 0.08 0.09 -0.00 6982
0.34 0.03 0.34 -1.11 9.41 0.06 0.08 -0.01 6989
0.34 0.03 0.36 -1.11 9.52 0.04 0.07 -0.02 6996
0.33 0.03 0.37 -1.12 9.56 0.02 0.06 -0.03 7004
0.32 0.03 0.25 -1.12 9.53 0.01 0.05 -0.03 7011
0.32 0.03 0.24 -1.09 9.56 -0.01 0.04 -0.04 7018
0.31 0.04 0.19 -1.08 9.66 -0.02 0.04 -0.04 7025
0.32 0.03 0.27 -1.08 9.69 -0.02 0.04 -0.04 7032
0.30 0.03 0.24 -1.04 9.68 -0.02 0.03 -0.04 7040
0.30 0.01 0.20 -1.09 9.70 -0.03 0.03 -0.04 7047
0.30 0.02 0.21 -1.05 9.81 -0.02 0.03 -0.04 7054
0.29 0.02 0.20 -1.09 9.76 -0.01 0.03 -0.04 7061
0.30 0.02 0.20 -1.07 9.65 -0.01 0.02 -0.04 7068
0.31 0.01 0.22 -1.09 9.68 -0.02 0.02 -0.03 7075
0.30 0.01 0.22 -1.06 9.66 -0.03 0.02 -0.03 7083
0.31 0.01 0.21 -1.08 9.65 -0.03 0.02 -0.07 7090
0.30 0.01 0.15 -1.08 9.64 -0.04 0.02 -0.03 7097
0.31 0.03 0.24 -1.05 9.66 -0.04 0.02 -0.03 7104
0.32 0.03 0.21 -1.04 9.74 -0.03 0.01 -0.03 7111
0.32 0.03 0.24 -1.07 9.71 -0.02 -0.01 -0.03 7118
0.32 0.02 0.21 -1.03 9.82 -0.01 -0.02 -0.03 7126
0.32 0.02 0.23 -1.05 9.81 0.00 -0.04 -0.03 7133
0.32 0.02 0.26 -1.05 9.81 0.01 -0.06 -0.03 7140
0.33 0.04 0.24 -1.09 9.75 0.02 -0.07 -0.04 7147
0.35 0.03 0.19 -1.07 9.74 0.02 -0.08 -0.04 7154
0.33 0.02 0.18 -1.08 9.74 0.01 -0.08 -0.04 7161
0.35 0.02 0.12 -1.08 9.71 0.01 -0.09 -0.04 7169
0.36 0.02 0.17 -1.09 9.66 0.02 -0.09 -0.04 7176
0.37 0.01 0.14 -1.09 9.73 0.02 -0.09 -0.04 7183
0.37 0.03 0.17 -1.05 9.80 0.02 -0.09 -0.04 7190
0.38 0.02 0.16 -1.10 9.83 0.02 -0.09 -0.05 7197
0.40 0.02 0.12 -1.12 9.75 0.03 -0.09 -0.05 7204
0.40 -0.01 0.12 -1.10 9.75 0.03 -0.09 -0.05 7212
0.39 0.01 0.11 -1.11 9.73 0.03 -0.08 -0.05 7219
0.43 0.02 0.02 -1.10 9.72 0.03 -0.08 -0.05 7226
0.43 0.03 0.03 -1.13 9.77 0.02 -0.07 -0.05 7233
0.40 0.01 0.03 -1.09 9.64 0.03 -0.06 -0.04 7240
0.39 0.00 0.03 -1.15 9.71 0.02 -0.05 -0.05 7247
0.40 -0.00 0.06 -1.14 9.75 0.02 -0.04 -0.05 7255
0.41 0.01 0.07 -1.18 9.67 0.02 -0.04 -0.05 7262
0.40 0.01 0.10 -1.16 9.67 0.02 -0.04 -0.05 7269
0.40 -0.00 0.07 -1.17 9.74 0.02 -0.04 -0.06 7276
0.39 0.00 0.03 -1.16 9.72 0.03 -0.04 -0.06 7283
0.39 -0.00 0.04 -1.15 9.77 0.03 -0.04 -0.06 7290
0.36 -0.02 0.06 -1.10 9.76 0.04 -0.03 -0.06 7298
0.37 -0.01 0.04 -1.12 9.74 0.05 -0.04 -0.07 7305
0.36 0.00 0.02 -1.18 9.75 0.06 -0.04 -0.07 7312
0.40 -0.01 0.01 -1.18 9.75 0.07 -0.04 -0.07 7319
0.40 -0.01 -0.09 -1.21 9.73 0.07 -0.04 -0.07 7326
0.41 -0.00 0.05 -1.20 9.82 0.08 -0.04 -0.07 7333
0.39 0.00 0.08 -1.25 9.84 0.09 -0.06 -0.08 7341
0.42 -0.01 0.09 -1.17 10.14 0.11 -0.08 -0.08 7348
0.44 0.00 0.09 -1.23 10.17 0.14 -0.13 -0.09 7355
0.46 -0.00 0.04 -1.33 10.02 0.16 -0.17 -0.09 7362
0.49 -0.02 0.19 -1.37 10.16 0.20 -0.22 -0.11 7370
0.48 -0.03 0.09 -1.28 10.56 0.26 -0.30 -0.13 7377
0.50 -0.04 0.04 -1.38 10.80 0.35 -0.42 -0.16 7384
0.53 -0.02 -0.63 -1.25 11.34 0.49 -0.66 -0.13 7392
0.55 -0.03 -0.10 -1.46 12.65 0.66 -0.92 -0.11 7399
0.54 -0.03 0.16 -1.64 13.92 0.94 -1.08 -0.13 7406
0.53 -0.02 1.68 -1.75 14.17 1.25 -0.98 -0.21 7413
0.47 -0.03 0.81 -1.73 14.18 1.48 -0.90 -0.31 7420
0.45 -0.03 0.99 -1.79 14.14 1.72 -1.05 -0.36 7428
0.52 -0.03 1.54 -2.33 14.53 1.94 -1.16 -0.45 7435
0.56 -0.03 1.70 -2.11 15.43 2.24 -1.25 -0.55 7442
0.57 -0.03 1.98 -2.60 15.93 2.55 -1.41 -0.68 7449
0.47 -0.03 2.72 -2.05 15.57 2.79 -1.57 -0.83 7456
0.43 -0.04 1.86 -2.42 16.31 3.07 -1.66 -0.94 7463
0.33 -0.03 1.70 -3.03 17.32 3.29 -1.84 -1.06 7471
0.26 -0.01 2.60 -3.68 17.24 3.47 -2.19 -1.17 7478
0.21 -0.02 3.98 -4.08 16.47 3.55 -2.55 -1.34 7485
0.14 -0.01 4.71 -4.32 15.68 3.55 -2.80 -1.58 7491
0.11 -0.01 5.91 -4.86 15.21 3.42 -3.08 -1.81 7498
0.06 -0.01 6.31 -5.02 16.06 3.25 -3.26 -2.11 7505
0.06 -0.01 6.61 -3.69 15.94 2.93 -3.50 -2.38 7513
0.05 -0.00 6.60 -2.86 14.21 2.56 -3.80 -2.59 7520
0.03 0.00 6.52 -2.44 12.73 2.28 -4.05 -2.76 7528
0.03 -0.00 6.35 -2.06 11.95 1.90 -4.25 -2.85 7534
0.02 -0.00 7.39 -1.45 9.84 1.50 -4.28 -2.83 7541
0.00 0.00 12.34 -0.76 8.20 1.18 -4.28 -2.52 7548
0.00 0.00 14.72 -3.15 10.18 0.93 -3.16 -1.18 7556
-0.00 0.01 17.53 -0.06 11.45 0.12 -0.86 -0.54 7563
-0.00 0.00 14.03 -0.76 7.95 -0.51 0.09 -0.04 7570
-0.00 0.00 9.17 -1.95 7.79 -0.82 0.64 0.49 7577
0.00 0.00 7.28 -2.94 7.67 -0.85 0.73 0.89 7584
0.00 0.00 6.67 -3.18 7.02 -0.75 0.68 1.12 7591
0.00 0.00 6.26 -2.76 6.61 -0.64 0.68 1.29 7599
-0.00 0.00 6.37 -2.51 6.84 -0.54 0.80 1.36 7606
-0.00 0.00 6.10 -2.14 7.15 -0.49 1.02 1.36 7613
0.00 0.00 5.57 -1.71 7.37 -0.48 1.25 1.30 7620
0.00 0.00 4.91 -1.30 7.74 -0.53 1.51 1.22 7627
0.00 0.00 4.24 -0.82 8.13 -0.61 1.70 1.12 7634
-0.00 0.00 3.57 -0.54 8.62 -0.73 1.81 1.04 7642
-0.00 0.01 3.06 -0.08 8.80 -0.87 1.89 0.94 7649
-0.00 0.01 2.71 0.21 8.95 -0.98 1.92 0.86 7656
-0.00 0.01 2.17 0.49 8.84 -1.10 1.98 0.83 7663
0.00 0.00 1.50 0.81 9.05 -1.17 2.08 0.80 7670
0.00 0.00 0.98 1.01 9.19 -1.21 2.15 0.77 7677
-0.00 0.01 0.67 1.43 9.48 -1.26 2.18 0.75 7685
-0.00 0.01 0.33 1.78 9.76 -1.31 2.21 0.72 7692
-0.00 0.00 0.17 2.15 10.03 -1.39 2.23 0.69 7699
-0.00 0.00 0.17 2.17 10.38 -1.48 2.28 0.64 7706
0.00 0.00 0.15 1.95 10.84 -1.57 2.34 0.57 7713
0.00 0.00 0.01 1.85 10.95 -1.64 2.44 0.46 7720
-0.00 0.00 -0.11 1.83 10.76 -1.68 2.50 0.35 7728
0.00 -0.00 -0.33 1.71 11.11 -1.69 2.54 0.27 7735
0.00 0.00 -0.68 1.88 11.23 -1.69 2.60 0.18 7742
0.00 0.00 -1.02 2.01 11.33 -1.67 2.70 0.11 7749
0.00 0.00 -1.61 1.74 11.66 -1.67 2.83 0.05 7756
0.00 0.00 -2.38 1.37 12.13 -1.67 2.91 -0.00 7763
-0.00 0.00 -2.91 1.10 12.52 -1.66 2.91 -0.03 7771
0.00 0.00 -3.29 0.84 12.83 -1.66 2.82 -0.03 7778
-0.00 0.00 -3.41 0.66 13.12 -1.66 2.71 -0.00 7785
0.00 0.00 -3.59 0.50 13.37 -1.67 2.57 0.04 7792
0.00 0.00 -3.91 0.30 13.44 -1.68 2.42 0.09 7799
0.00 0.00 -4.31 0.09 13.31 -1.71 2.26 0.14 7806
0.00 0.00 -4.56 -0.10 13.08 -1.73 2.02 0.19 7814
0.00 0.00 -4.39 -0.45 12.79 -1.73 1.82 0.23 7821
0.00 0.00 -3.91 -0.65 12.78 -1.75 1.73 0.25 7828
0.00 0.00 -3.72 -0.95 12.68 -1.76 1.64 0.27 7835
0.00 0.00 -3.81 -1.80 12.54 -1.76 1.59 0.28 7842
0.00 0.00 -3.96 -1.67 12.44 -1.76 1.55 0.28 7849
0.00 -0.00 -4.15 -2.00 12.19 -1.76 1.51 0.24 7857
0.00 0.00 -4.33 -2.30 12.00 -1.78 1.46 0.19 7864
0.00 0.00 -4.44 -2.61 11.89 -1.79 1.41 0.12 7871
0.00 0.00 -4.81 -2.87 11.55 -1.80 1.37 0.06 7878
0.00 0.00 -5.30 -3.16 11.22 -1.80 1.29 -0.00 7885
0.00 0.00 -5.83 -3.64 10.64 -1.80 1.16 -0.07 7892
0.00 0.00 -5.58 -4.31 9.23 -1.81 0.97 -0.14 7900
0.00 0.00 -4.41 -5.03 9.47 -1.82 0.68 -0.26 7907
0.00 0.00 -3.19 -5.88 9.10 -1.82 0.53 -0.34 7914
0.00 0.00 -2.08 -6.49 8.86 -1.79 0.51 -0.40 7921
0.00 0.00 -1.63 -7.19 8.71 -1.74 0.58 -0.42 7928
0.00 0.00 -1.66 -7.75 8.71 -1.64 0.64 -0.39 7936
0.00 -0.00 -2.08 -8.20 8.51 -1.52 0.70 -0.27 7943
0.00 0.00 -2.57 -8.74 8.36 -1.42 0.72 -0.09 7950
0.00 0.00 -3.01 -8.93 8.27 -1.30 0.72 0.13 7957
0.00 0.00 -3.14 -9.13 8.38 -1.19 0.71 0.44 7964
0.00 0.00 -6.19 -16.25 5.22 -1.06 0.68 0.82 7971
-0.00 0.01 -31.47 -18.65 6.49 -0.11 -2.50 1.55 7980
-0.00 0.01 -19.63 -17.37 -1.10 0.45 -4.28 2.43 7987
-0.00 0.03 -10.28 -26.97 6.06 1.02 -4.28 2.92 7994
-0.01 0.06 -13.64 -29.78 6.72 1.92 -4.28 3.93 8001
-0.03 0.26 -16.57 -3.31 20.58 3.00 -3.06 4.28 8008
-0.06 0.57 -14.76 -2.80 20.25 3.54 -0.17 4.28 8015
-0.05 0.76 -20.82 -0.68 22.52 3.68 -0.04 3.94 8023
-0.05 0.72 -18.97 -4.84 17.93 3.42 -0.56 2.11 8030
-0.05 0.68 -12.73 -6.44 17.47 3.02 -0.34 0.94 8037
-0.06 0.63 -1.85 -7.97 27.55 1.76 -0.98 0.08 8044
-0.05 0.57 2.01 -2.26 13.58 0.05 -0.64 0.08 8050
-0.04 0.59 0.78 -2.73 11.75 -0.01 -0.46 0.09 8057
-0.01 0.52 0.53 0.18 9.87 0.10 -0.45 0.08 8065
0.01 0.47 -0.79 -0.51 8.71 0.03 -0.36 0.05 8072
-0.00 0.46 -0.89 -1.79 9.18 -0.02 -0.21 0.03 8079
0.02 0.42 -0.11 -1.88 9.92 -0.09 -0.09 0.03 8086
0.05 0.43 0.21 -1.41 10.37 -0.09 -0.05 0.03 8093
0.08 0.46 0.14 -1.16 10.11 -0.05 -0.04 0.03 8100
0.09 0.43 0.05 -1.10 9.90 -0.04 -0.02 0.03 8108
0.07 0.44 0.18 -1.11 9.80 -0.05 -0.00 0.04 8115
0.07 0.43 0.21 -1.06 9.85 -0.07 -0.01 0.03 8122
0.06 0.43 0.19 -0.88 9.81 -0.06 -0.01 0.03 8129
0.06 0.46 0.18 -0.83 9.87 -0.03 -0.01 0.02 8136
0.08 0.45 0.04 -0.84 9.74 -0.00 -0.01 0.02 8143
0.10 0.46 0.01 -0.85 9.81 0.02 -0.02 0.02 8151
0.09 0.46 0.02 -0.78 9.82 0.04 -0.02 0.02 8158
0.09 0.43 0.08 -0.80 9.91 0.07 -0.02 0.02 8165
0.10 0.39 0.14 -0.86 10.02 0.09 -0.03 0.02 8172
0.12 0.36 0.09 -0.90 9.86 0.11 -0.04 0.01 8179
0.12 0.34 0.05 -0.84 9.90 0.12 -0.05 0.01 8186
0.15 0.32 -0.03 -0.84 9.82 0.13 -0.05 0.01 8194
0.15 0.29 0.04 -0.89 9.74 0.13 -0.04 0.01 8201
0.14 0.23 0.09 -0.96 9.67 0.12 -0.04 0.01 8208
0.14 0.24 0.09 -0.97 9.64 0.11 -0.04 0.00 8215
0.15 0.20 0.10 -0.99 9.68 0.10 -0.03 -0.00 8222
0.16 0.21 0.09 -1.00 9.66 0.08 -0.03 -0.01 8229
0.14 0.19 0.15 -1.02 9.62 0.07 -0.03 -0.01 8237
0.14 0.17 0.11 -1.00 9.61 0.06 -0.04 -0.01 8244
0.15 0.17 0.12 -0.95 9.64 0.05 -0.04 -0.02 8251
0.14 0.18 0.09 -0.99 9.66 0.05 -0.04 -0.02 8258
0.15 0.20 0.04 -1.03 9.66 0.04 -0.04 -0.03 8265
0.16 0.16 0.10 -1.00 9.66 0.03 -0.04 -0.03 8272
0.15 0.16 0.12 -1.03 9.77 0.03 -0.04 -0.03 8280
0.14 0.17 0.05 -1.03 9.78 0.03 -0.04 -0.03 8287
0.13 0.15 0.01 -1.02 9.71 0.03 -0.04 -0.03 8294
0.12 0.15 0.01 -1.05 9.69 0.03 -0.04 -0.03 8301
0.14 0.17 -0.00 -1.03 9.53 0.03 -0.03 -0.03 8308
0.15 0.16 -0.01 -1.05 9.61 0.01 -0.03 -0.03 8315
0.14 0.15 -0.02 -1.08 9.60 -0.00 -0.02 -0.03 8323
0.13 0.15 0.02 -1.04 9.64 -0.01 -0.01 -0.03 8330
0.09 0.16 0.00 -1.03 9.63 -0.02 -0.01 -0.03 8337
0.14 0.17 0.01 -1.05 9.72 -0.02 -0.01 -0.03 8344
0.12 0.17 0.00 -1.02 9.75 -0.01 -0.01 -0.03 8351
0.13 0.19 -0.04 -1.04 9.66 -0.00 -0.00 -0.03 8358
0.11 0.17 -0.08 -1.00 9.69 0.01 0.00 -0.03 8366
0.12 0.18 -0.01 -0.98 9.67 0.03 0.01 -0.03 8373
0.12 0.12 -0.01 -1.04 9.79 0.05 0.01 -0.03 8380
0.16 0.08 0.04 -1.10 9.82 0.07 0.01 -0.03 8387
0.17 0.07 0.01 -1.10 9.74 0.08 0.01 -0.03 8394
0.20 0.05 0.07 -1.09 9.93 0.10 -0.00 -0.03 8401
0.23 0.05 0.04 -1.08 9.91 0.11 -0.01 -0.03 8409
0.25 0.02 0.00 -1.10 9.79 0.13 -0.02 -0.03 8416
0.25 0.01 -0.07 -1.14 9.78 0.14 -0.02 -0.03 8423
0.25 -0.01 -0.01 -1.15 9.82 0.15 -0.02 -0.03 8430
0.26 0.02 -0.02 -1.11 9.88 0.17 -0.03 -0.04 8437
0.26 -0.02 -0.00 -1.12 9.98 0.19 -0.05 -0.04 8444
0.26 -0.01 0.02 -1.21 10.09 0.22 -0.06 -0.03 8452
0.27 -0.02 0.06 -1.19 10.14 0.25 -0.10 -0.04 8460
0.28 -0.02 0.11 -1.30 10.14 0.28 -0.13 -0.04 8467
0.27 0.01 0.01 -1.27 10.66 0.31 -0.17 -0.05 8473
0.32 -0.01 0.09 -1.06 10.40 0.34 -0.23 -0.06 8480
0.32 -0.01 0.06 -1.44 10.83 0.38 -0.30 -0.09 8488
0.35 -0.03 -0.01 -1.59 11.14 0.48 -0.44 -0.10 8496
0.36 -0.03 -0.22 -1.49 11.95 0.65 -0.65 -0.12 8503
0.36 -0.02 0.09 -1.52 12.98 0.90 -0.74 -0.13 8510
0.41 -0.02 0.81 -1.71 13.57 1.18 -0.58 -0.19 8517
0.43 -0.02 -0.05 -1.62 13.81 1.39 -0.48 -0.24 8524
0.38 -0.02 0.32 -1.83 14.96 1.64 -0.61 -0.22 8531
0.41 -0.02 0.49 -1.87 16.94 2.00 -0.76 -0.25 8539
0.38 -0.02 0.24 -1.29 16.45 2.36 -1.03 -0.27 8546
0.42 -0.02 1.85 -1.87 14.95 2.66 -1.41 -0.32 8553
0.38 -0.02 2.91 -2.50 14.35 2.82 -1.65 -0.46 8560
0.37 -0.02 3.58 -2.62 15.16 2.97 -1.80 -0.63 8567
0.30 -0.02 2.58 -2.96 16.58 3.16 -1.95 -0.84 8574
0.27 -0.02 2.32 -4.20 18.10 3.33 -2.26 -0.98 8582
0.18 -0.02 4.57 -4.45 18.04 3.48 -2.80 -1.15 8588
0.11 -0.01 7.19 -4.96 16.71 3.51 -3.17 -1.43 8596
0.08 -0.01 9.09 -4.99 15.60 3.48 -3.28 -1.79 8602
0.06 -0.01 9.66 -5.46 16.84 3.45 -3.43 -2.20 8609
0.06 -0.01 9.92 -5.67 17.65 3.35 -3.68 -2.66 8616
0.05 -0.00 10.97 -5.44 17.11 3.14 -3.95 -3.05 8625
0.04 -0.00 10.90 -3.35 16.06 2.98 -4.04 -3.42 8631
0.06 -0.01 10.60 -0.99 14.88 2.72 -3.99 -3.67 8639
0.04 -0.00 10.06 0.01 12.80 2.27 -4.18 -3.81 8645
0.01 -0.00 14.60 1.78 10.27 1.83 -4.27 -3.42 8653
0.01 -0.00 20.54 -0.22 8.96 1.52 -2.85 -1.95 8659
0.00 0.00 22.62 1.83 14.74 0.73 -0.01 -1.18 8667
0.00 0.00 15.68 1.68 10.40 0.18 0.99 -0.74 8674
0.01 -0.00 8.58 1.52 9.58 -0.10 1.33 -0.42 8681
0.01 -0.00 6.52 0.79 9.38 -0.25 1.12 -0.36 8688
0.02 -0.00 6.40 1.51 8.41 -0.39 0.88 -0.46 8695
0.01 -0.00 7.02 2.24 8.12 -0.55 0.97 -0.69 8702
0.00 0.00 7.13 2.40 8.14 -0.77 1.22 -0.93 8710
0.01 -0.00 6.84 2.54 7.94 -0.99 1.60 -1.25 8717
0.02 -0.00 5.57 2.60 7.56 -1.13 1.92 -1.54 8724
0.03 -0.00 5.59 2.62 7.71 -1.24 2.16 -1.75 8731
0.02 -0.00 5.20 2.51 8.04 -1.34 2.40 -1.92 8738
0.03 -0.00 4.76 2.27 8.31 -1.35 2.61 -1.98 8745
0.00 0.00 4.09 1.95 9.01 -1.38 2.87 -1.95 8753
0.01 0.01 3.61 1.28 10.05 -1.40 3.05 -1.85 8760
-0.00 0.02 3.32 1.05 10.27 -1.44 3.08 -1.67 8767
-0.00 0.00 3.39 0.64 10.39 -1.45 3.12 -1.39 8774
0.00 0.00 3.63 0.03 10.74 -1.42 3.18 -1.10 8781
0.00 0.00 3.44 -0.20 10.77 -1.33 3.33 -0.85 8788
-0.00 0.00 2.71 -0.45 11.05 -1.23 3.51 -0.59 8796
0.00 0.00 2.19 -0.62 11.71 -1.09 3.63 -0.40 8803
0.00 0.00 0.90 -0.37 12.47 -0.97 3.68 -0.20 8810
0.00 0.00 -0.26 0.04 12.88 -0.90 3.66 -0.03 8817
0.00 0.00 -1.60 0.25 13.18 -0.86 3.57 0.09 8824
0.00 0.00 -2.68 0.28 13.38 -0.86 3.42 0.23 8832
0.00 0.00 -3.26 0.21 13.54 -0.88 3.27 0.31 8839
-0.00 0.00 -3.77 0.44 13.33 -0.92 3.11 0.38 8846
-0.00 0.00 -4.02 0.57 13.13 -0.95 3.01 0.46 8853
0.00 0.00 -4.68 0.55 13.04 -0.98 2.99 0.52 8860
-0.00 0.00 -5.25 0.58 12.86 -1.01 2.88 0.60 8867
0.00 0.00 -5.46 0.61 12.68 -1.05 2.72 0.70 8875
0.00 0.00 -5.38 0.47 12.41 -1.07 2.51 0.83 8882
-0.00 0.01 -4.85 0.46 11.85 -1.10 2.31 0.98 8889
0.00 -0.00 -4.45 0.20 11.56 -1.11 2.23 1.10 8896
0.00 0.00 -4.11 -0.23 11.41 -1.11 2.16 1.18 8903
0.00 0.00 -3.91 -0.46 11.29 -1.08 2.12 1.22 8910
0.00 0.00 -4.05 -0.60 11.19 -1.04 2.09 1.24 8918
0.00 0.00 -4.19 -0.64 11.16 -1.01 2.07 1.24 8925
-0.00 0.01 -4.36 -0.66 11.21 -1.00 1.98 1.24 8932
0.00 0.00 -4.59 -0.57 11.12 -1.01 1.84 1.24 8939
0.00 -0.00 -4.85 -0.46 10.69 -1.07 1.72 1.23 8946
0.00 0.00 -5.10 -0.50 10.51 -1.16 1.61 1.19 8953
0.00 0.00 -5.15 -0.75 10.19 -1.26 1.56 1.08 8961
0.00 0.00 -5.53 -1.14 9.21 -1.38 1.56 0.93 8968
-0.00 0.00 -6.07 -2.03 9.43 -1.49 1.60 0.67 8975
0.00 0.00 -7.24 -3.30 9.03 -1.56 1.64 0.32 8982
0.00 0.00 -7.62 -4.38 8.63 -1.62 1.63 -0.02 8989
0.00 0.00 -8.17 -5.16 8.19 -1.65 1.55 -0.38 8996
0.00 0.00 -8.67 -5.60 7.61 -1.64 1.42 -0.63 9004
0.00 0.00 -8.81 -6.06 7.39 -1.57 1.22 -0.68 9011
-0.00 0.00 -8.43 -6.64 7.55 -1.47 1.04 -0.61 9018
0.00 0.00 -7.97 -7.39 7.26 -1.32 1.00 -0.43 9025
0.00 0.00 -7.50 -8.22 6.55 -1.12 1.00 -0.15 9032
0.00 0.00 -6.67 -8.19 5.61 -0.92 1.04 0.19 9039
0.00 0.00 -5.29 -7.07 4.67 -0.69 1.18 0.47 9047
-0.00 0.01 -59.14 -31.00 23.39 0.42 -3.06 1.18 9055
-0.00 0.02 -43.47 -26.51 -0.65 1.32 -4.28 2.55 9062
-0.01 0.05 -6.78 -22.23 9.47 2.15 -4.28 2.64 9068
-0.04 0.41 -41.61 -8.56 72.91 4.12 -4.27 3.63 9076
-0.09 0.87 -28.45 3.22 30.10 2.74 -1.77 2.95 9083
-0.09 0.98 -18.21 -5.15 28.80 2.93 -2.45 0.59 9091
-0.06 0.97 -4.02 -4.35 19.62 1.58 -2.35 -0.25 9098
-0.04 0.90 0.40 1.46 8.30 -0.02 -0.80 0.32 9104
-0.01 0.79 -0.30 -5.10 10.36 0.12 -0.64 0.32 9112
-0.00 0.73 -0.38 0.19 9.19 0.20 -0.55 0.20 9118
0.05 0.66 -0.37 -0.21 7.25 0.10 -0.48 0.14 9125
0.08 0.58 -1.60 -2.98 9.26 -0.04 -0.29 0.10 9133
0.14 0.62 -0.20 -2.11 10.50 -0.09 -0.11 0.06 9141
0.15 0.61 -0.10 -0.82 10.60 -0.03 -0.06 0.04 9147
0.13 0.55 -0.18 -0.96 10.14 0.07 -0.03 0.06 9154
0.13 0.51 0.15 -1.07 9.38 0.07 -0.00 0.06 9161
0.13 0.46 0.12 -1.14 9.72 0.01 0.02 0.05 9168
0.10 0.48 -0.01 -0.92 9.91 -0.02 0.03 0.06 9176
0.13 0.50 0.00 -0.77 9.87 -0.02 0.06 0.06 9183
0.14 0.50 0.03 -0.78 9.85 -0.02 0.07 0.06 9190
0.15 0.50 0.06 -0.77 9.86 -0.01 0.07 0.06 9197
0.17 0.49 0.11 -0.73 9.75 -0.01 0.07 0.06 9204
0.15 0.50 0.10 -0.75 9.82 -0.01 0.07 0.06 9211
0.15 0.49 0.01 -0.76 9.83 0.03 0.06 0.05 9219
0.11 0.48 0.04 -0.70 9.98 0.01 0.06 0.05 9226
0.15 0.45 0.03 -0.68 9.88 0.04 0.05 0.04 9233
0.13 0.44 0.03 -0.74 9.84 0.06 0.06 0.04 9240
0.13 0.42 0.01 -0.75 9.78 0.07 0.06 0.04 9247
0.08 0.41 0.07 -0.79 9.68 0.07 0.06 0.04 9254
0.09 0.39 0.10 -0.81 9.75 0.06 0.06 0.04 9262
0.10 0.37 0.17 -0.80 9.68 0.06 0.06 0.03 9269
0.10 0.38 0.09 -0.86 9.56 0.05 0.06 0.03 9276
0.10 0.35 0.12 -0.84 9.58 0.03 0.07 0.02 9283
0.08 0.35 0.17 -0.83 9.53 0.02 0.07 0.02 9290
0.08 0.40 0.24 -0.82 9.57 0.01 0.06 0.02 9297
0.10 0.36 0.27 -0.86 9.57 -0.01 0.05 0.02 9305
0.11 0.36 0.28 -0.85 9.58 -0.02 0.04 0.01 9312
0.10 0.38 0.23 -0.87 9.63 -0.03 0.02 0.01 9319
0.11 0.36 0.23 -0.86 9.64 -0.03 0.01 0.01 9326
0.07 0.37 0.23 -0.79 9.60 -0.03 0.00 0.00 9333
0.07 0.38 0.33 -0.76 9.75 -0.02 -0.01 -0.00 9340
0.09 0.41 0.27 -0.83 9.65 -0.01 -0.03 0.00 9348
0.07 0.39 0.18 -0.82 9.58 -0.01 -0.03 -0.03 9355
0.07 0.38 0.11 -0.90 9.68 -0.02 -0.03 0.00 9362
0.08 0.37 0.10 -0.85 9.57 -0.04 -0.04 0.00 9369
0.06 0.38 0.15 -0.84 9.72 -0.04 -0.04 0.01 9376
0.10 0.37 0.15 -0.82 9.69 -0.04 -0.04 0.01 9383
0.10 0.40 0.13 -0.84 9.65 -0.05 -0.05 0.01 9391
0.11 0.41 0.11 -0.82 9.72 -0.03 -0.06 0.01 9398
0.09 0.42 0.14 -0.82 9.74 -0.02 -0.07 0.01 9405
0.10 0.43 0.04 -0.81 9.68 -0.02 -0.07 0.01 9412
0.09 0.45 0.06 -0.83 9.77 -0.00 -0.07 0.01 9419
0.10 0.50 0.09 -0.81 9.72 0.01 -0.08 0.01 9426
0.11 0.46 0.02 -0.85 9.74 0.01 -0.07 0.00 9434
0.11 0.45 -0.00 -0.82 9.66 0.02 -0.06 -0.00 9441
0.10 0.44 -0.02 -0.79 9.68 0.02 -0.05 0.00 9448
0.09 0.41 -0.00 -0.80 9.71 0.03 -0.05 -0.00 9455
0.10 0.38 0.01 -0.86 9.72 0.03 -0.04 0.00 9462
0.10 0.36 -0.02 -0.85 9.66 0.03 -0.03 0.00 9469
0.14 0.32 -0.01 -0.85 9.78 0.04 -0.03 0.00 9477
0.15 0.33 0.01 -0.91 9.72 0.05 -0.03 0.03 9484
0.14 0.30 0.01 -0.90 9.72 0.06 -0.03 0.00 9491
0.15 0.26 0.03 -0.84 9.72 0.06 -0.03 -0.00 9498
0.16 0.28 0.03 -0.84 9.74 0.07 -0.03 -0.00 9505
0.16 0.26 -0.00 -0.88 9.75 0.07 -0.03 -0.01 9512
0.17 0.20 0.03 -0.89 9.78 0.08 -0.03 -0.01 9520
0.17 0.16 0.04 -0.91 9.80 0.09 -0.01 -0.01 9527
0.17 0.17 -0.02 -0.91 9.71 0.10 -0.00 -0.01 9534
0.16 0.18 0.02 -0.88 9.77 0.11 0.01 -0.02 9541
0.18 0.15 0.04 -0.88 9.82 0.13 0.01 -0.02 9548
0.19 0.16 0.59 -0.97 9.84 0.14 0.02 -0.02 9555
0.21 0.12 -0.01 -0.98 9.74 0.17 0.03 -0.03 9563
0.22 0.11 -0.03 -0.96 9.91 0.20 0.03 -0.04 9570
0.22 0.04 0.02 -0.96 10.00 0.24 0.04 -0.04 9577
0.23 0.04 0.03 -0.95 9.93 0.27 0.05 -0.04 9584
0.22 0.03 0.13 -1.02 10.13 0.30 0.03 -0.04 9591
0.25 0.01 0.10 -1.02 10.23 0.34 -0.01 -0.04 9598
0.27 -0.01 0.10 -0.86 10.67 0.38 -0.09 -0.04 9606
0.26 -0.01 0.02 -1.05 11.05 0.45 -0.16 -0.05 9613
0.27 -0.02 0.08 -1.27 11.26 0.55 -0.30 -0.06 9620
0.27 -0.00 -0.31 -1.53 13.69 0.71 -0.58 -0.06 9628
0.29 -0.00 -0.32 -1.46 15.00 1.10 -1.14 -0.04 9634
0.31 -0.02 2.24 -1.63 15.65 1.54 -1.40 -0.04 9643
0.39 -0.02 2.79 -1.63 14.23 1.82 -0.99 -0.24 9650
0.43 -0.04 -0.12 -1.50 15.14 2.06 -1.02 -0.29 9657
0.43 -0.03 0.58 -1.70 15.48 2.28 -1.13 -0.30 9664
0.39 -0.02 0.91 -1.95 16.24 2.59 -1.21 -0.32 9671
0.37 -0.02 1.69 -2.08 16.21 2.86 -1.47 -0.38 9678
0.33 -0.02 2.84 -2.46 16.37 3.04 -1.79 -0.50 9686
0.27 -0.02 3.74 -2.91 16.26 3.20 -2.16 -0.66 9693
0.20 -0.02 3.88 -3.32 16.50 3.29 -2.52 -0.88 9699
0.17 -0.02 4.05 -4.06 16.45 3.32 -2.86 -1.05 9706
0.12 -0.01 5.25 -4.15 16.15 3.27 -3.15 -1.29 9714
0.05 0.00 6.35 -5.02 16.00 3.17 -3.38 -1.59 9720
0.07 -0.01 7.26 -5.11 16.34 2.95 -3.75 -1.88 9728
0.04 -0.00 7.71 -4.69 15.87 2.73 -4.25 -2.23 9735
0.05 -0.00 7.72 -4.45 15.02 2.46 -4.28 -2.50 9742
0.03 -0.00 7.85 -3.33 14.76 2.18 -4.28 -2.70 9749
0.02 -0.00 7.75 -2.62 14.57 1.81 -4.28 -2.75 9756
0.00 -0.00 9.48 -2.63 13.67 1.23 -4.28 -2.65 9763
0.00 0.00 18.90 -4.00 9.68 0.84 -4.28 -1.85 9771
0.00 0.00 20.44 -3.30 14.82 0.61 -4.17 -0.41 9778
0.00 0.00 24.68 -1.53 9.63 -0.25 -1.29 0.35 9785
0.00 0.00 16.05 -2.96 8.56 -0.55 0.14 0.97 9792
0.00 0.00 11.72 -3.64 8.66 -0.57 0.91 1.33 9799
0.00 -0.00 8.56 -4.07 9.14 -0.41 0.93 1.64 9806
0.00 0.00 7.45 -2.92 8.74 -0.33 0.74 1.83 9814
0.00 0.00 7.68 -1.29 8.87 -0.39 0.57 1.86 9821
0.00 0.00 7.88 -0.48 9.20 -0.50 0.59 1.80 9828
0.00 0.00 7.35 0.08 9.35 -0.65 0.70 1.68 9835
0.00 0.00 6.72 0.60 9.07 -0.79 0.90 1.47 9842
0.00 0.00 6.29 0.97 8.89 -0.85 1.08 1.20 9849
0.00 0.00 6.18 1.43 9.03 -0.93 1.34 0.93 9857
0.00 0.00 6.05 1.77 9.18 -1.02 1.65 0.60 9864
0.00 0.00 5.66 2.19 9.48 -1.13 1.97 0.32 9871
0.00 0.00 4.96 2.60 9.64 -1.27 2.33 0.04 9878
0.00 0.00 3.97 2.77 9.70 -1.40 2.59 -0.17 9885
0.00 -0.00 2.64 2.69 9.68 -1.50 2.80 -0.28 9892
0.00 0.00 1.19 2.73 10.03 -1.55 2.94 -0.34 9900
0.00 0.00 0.09 2.53 10.43 -1.59 2.97 -0.35 9907
0.00 0.00 -0.73 2.54 10.59 -1.62 2.91 -0.32 9914
0.00 0.00 -1.12 2.54 10.98 -1.66 2.82 -0.22 9921
-0.00 0.01 -1.20 2.49 11.18 -1.73 2.70 -0.12 9928
-0.00 0.00 -1.15 2.37 11.16 -1.83 2.61 0.01 9935
-0.00 0.01 -0.87 2.23 11.15 -1.86 2.54 0.11 9943
0.00 0.00 -0.60 1.75 11.34 -1.91 2.55 0.16 9950
0.00 0.00 -0.68 1.28 11.65 -1.93 2.61 0.15 9957
0.00 0.00 -1.06 0.73 11.95 -1.96 2.71 0.09 9964
-0.00 0.00 -1.74 0.12 12.33 -1.98 2.76 -0.02 9971
-0.00 0.00 -2.18 -0.34 12.55 -1.98 2.75 -0.15 9978
-0.00 0.00 -2.41 -0.76 12.97 -1.99 2.70 -0.25 9986
0.00 0.00 -2.27 -1.33 13.41 -1.98 2.65 -0.33 9993
0.00 0.00 -2.05 -1.75 12.90 -1.95 2.61 -0.36 10000
-0.00 0.00 -2.09 -2.26 13.43 -1.91 2.58 -0.36 10007
0.01 0.00 -2.13 -3.07 13.32 -1.84 2.58 -0.35 10015
0.00 0.00 -2.39 -3.57 13.29 -1.72 2.58 -0.35 10021
0.00 0.00 -2.90 -3.75 13.23 -1.57 2.58 -0.34 10029
0.00 0.00 -3.55 -3.66 13.31 -1.38 2.58 -0.31 10036
0.00 0.00 -4.16 -3.30 13.39 -1.20 2.54 -0.23 10043
-0.00 0.01 -4.77 -2.73 13.45 -1.08 2.53 -0.10 10050
0.00 0.00 -5.78 -2.34 13.59 -1.00 2.49 0.04 10057
-0.00 0.01 -7.20 -1.88 13.43 -0.99 2.37 0.23 10064
0.00 0.00 -8.38 -1.54 13.05 -1.03 2.19 0.42 10072
0.00 0.00 -9.44 -1.19 12.67 -1.08 1.92 0.56 10079
0.00 0.00 -9.91 -1.21 12.19 -1.15 1.60 0.67 10086
-0.00 0.01 -9.85 -1.59 11.04 -1.23 1.30 0.70 10093
0.00 0.00 -9.51 -2.43 11.17 -1.34 1.06 0.64 10100
0.00 0.00 -8.98 -3.42 10.67 -1.37 0.94 0.53 10107
0.00 0.00 -8.54 -4.61 10.21 -1.44 0.84 0.33 10115
0.00 0.00 -8.12 -5.64 9.30 -1.47 0.79 0.12 10122
-0.00 0.00 -7.96 -6.38 8.55 -1.45 0.72 -0.04 10129
0.01 0.00 -7.83 -7.04 8.13 -1.36 0.64 -0.16 10136
0.01 0.00 -7.70 -7.72 7.86 -1.24 0.59 -0.22 10143
0.00 0.00 -7.78 -8.23 7.67 -1.09 0.55 -0.22 10150
0.00 0.00 -8.09 -8.58 7.42 -0.97 0.49 -0.17 10158
0.00 0.00 -8.23 -8.67 7.13 -0.82 0.41 -0.10 10165
0.00 0.00 -8.04 -8.18 6.95 -0.70 0.32 0.01 10172
0.00 0.01 -7.48 -7.58 6.35 -0.61 0.26 0.15 10179
0.00 -0.00 -7.07 -6.89 5.97 -0.52 0.25 0.28 10186
-0.00 0.00 -6.70 -5.93 5.37 -0.40 0.26 0.44 10193
0.00 -0.00 -28.90 -23.22 25.38 0.53 -2.57 0.93 10202
-0.00 0.01 -35.96 -23.15 -0.68 1.13 -4.28 1.73 10209
-0.00 0.02 -6.31 -21.64 3.36 2.03 -4.28 2.00 10215
-0.01 0.14 -33.18 0.79 59.82 3.95 -4.28 2.64 10223
-0.05 0.52 -22.05 -3.59 30.68 3.89 -0.42 3.27 10230
-0.06 0.75 -17.29 -2.47 30.94 3.59 -0.68 1.87 10237
-0.06 0.77 -8.29 -7.06 24.37 0.74 -1.89 0.29 10245
-0.03 0.73 -4.17 -6.38 14.95 -0.31 -0.67 -0.03 10252
-0.01 0.68 2.13 -2.39 10.70 0.09 -0.27 0.15 10259
0.02 0.61 1.03 0.65 9.72 0.11 -0.38 0.15 10265
-0.01 0.60 -0.10 0.15 8.57 0.14 -0.46 0.11 10272
0.09 0.55 -1.14 -1.71 9.16 0.04 -0.36 0.08 10279
0.06 0.53 -0.44 -2.21 9.29 -0.08 -0.15 0.05 10287
0.11 0.52 0.13 -1.59 10.31 -0.14 -0.07 0.01 10295
0.13 0.56 -0.13 -0.78 10.46 -0.08 -0.05 0.00 10301
0.13 0.55 -0.30 -0.88 9.95 -0.01 -0.01 0.02 10308
0.16 0.53 0.05 -1.09 9.43 -0.01 0.02 0.03 10315
0.18 0.52 0.31 -1.16 9.58 -0.07 0.03 0.02 10322
0.16 0.54 0.17 -0.95 9.85 -0.09 0.01 0.02 10330
0.17 0.57 -0.02 -0.77 9.82 -0.08 -0.00 0.02 10337
0.18 0.60 -0.02 -0.78 9.75 -0.06 0.01 0.02 10344
0.19 0.61 0.01 -0.67 9.77 -0.05 0.01 0.02 10351
0.19 0.60 -0.04 -0.72 9.83 -0.02 0.02 0.02 10358
0.18 0.59 -0.03 -0.70 9.76 -0.00 0.03 0.02 10365
0.16 0.59 -0.02 -0.71 9.85 0.02 0.05 0.02 10373
0.17 0.58 -0.02 -0.69 9.83 0.04 0.05 0.02 10380
0.19 0.53 0.01 -0.76 9.88 0.06 0.05 0.02 10387
0.19 0.50 0.00 -0.76 9.83 0.07 0.05 0.02 10394
0.18 0.48 0.02 -0.77 9.79 0.09 0.05 0.02 10401
0.18 0.44 0.07 -0.78 9.76 0.10 0.04 0.02 10408
0.18 0.38 0.04 -0.85 9.69 0.10 0.05 0.02 10416
0.16 0.39 0.03 -0.83 9.69 0.10 0.04 0.01 10423
0.18 0.36 0.10 -0.85 9.67 0.10 0.04 0.01 10430
0.16 0.34 0.07 -0.85 9.62 0.10 0.03 0.01 10437
0.14 0.29 0.11 -0.83 9.65 0.09 0.04 0.01 10444
0.15 0.24 0.11 -0.91 9.72 0.08 0.04 0.01 10451
0.15 0.23 0.14 -0.87 9.62 0.06 0.04 0.00 10459
0.16 0.26 0.14 -0.91 9.65 0.05 0.03 0.00 10466
0.18 0.29 0.17 -0.85 9.64 0.04 0.03 -0.00 10473
0.15 0.29 0.13 -0.90 9.75 0.04 0.02 -0.00 10480
0.14 0.22 0.13 -0.90 9.70 0.03 0.01 -0.01 10487
0.14 0.23 0.08 -0.87 9.74 0.03 0.01 -0.01 10494
0.14 0.22 0.08 -0.91 9.69 0.04 0.01 -0.01 10502
0.14 0.24 0.10 -0.93 9.66 0.03 0.01 -0.01 10509
0.14 0.21 0.08 -0.93 9.60 0.02 0.01 -0.01 10516
0.14 0.22 0.08 -0.93 9.67 0.01 0.01 -0.01 10523
0.14 0.22 0.09 -0.94 9.72 0.01 0.01 -0.01 10530
0.14 0.23 0.09 -0.91 9.65 0.01 0.01 -0.01 10537
0.16 0.22 0.11 -0.93 9.72 0.01 0.01 -0.01 10545
0.17 0.23 0.09 -0.92 9.70 0.01 0.00 -0.01 10552
0.18 0.22 0.13 -0.90 9.75 0.01 -0.00 -0.01 10559
0.18 0.21 0.13 -0.89 9.73 0.01 -0.01 -0.01 10566
0.19 0.18 0.11 -0.95 9.68 0.01 -0.01 -0.01 10573
0.17 0.18 0.05 -0.96 9.62 0.00 -0.01 -0.01 10580
0.19 0.19 0.09 -0.94 9.69 -0.00 -0.02 -0.01 10588
0.20 0.19 0.08 -0.94 9.67 -0.00 -0.02 -0.01 10595
0.20 0.19 0.05 -0.93 9.75 -0.01 -0.01 -0.01 10602
0.19 0.19 0.04 -0.94 9.70 -0.01 -0.02 -0.01 10609
0.17 0.19 0.05 -0.91 9.72 -0.01 -0.02 -0.01 10616
0.16 0.19 -0.57 -0.95 9.75 -0.01 -0.02 -0.01 10624
0.18 0.20 0.03 -0.94 9.80 -0.00 -0.02 -0.01 10631
0.20 0.19 0.08 -0.97 9.79 0.00 -0.02 -0.01 10638
0.18 0.19 0.06 -0.92 9.67 0.01 -0.03 -0.01 10645
0.18 0.20 0.13 -0.92 9.79 0.00 -0.04 -0.01 10652
0.18 0.19 0.08 -0.99 9.73 0.01 -0.05 -0.01 10659
0.19 0.18 0.05 -0.96 9.72 0.00 -0.05 -0.01 10667
0.21 0.20 0.03 -0.96 9.71 -0.00 -0.06 -0.01 10674
0.22 0.18 0.00 -0.96 9.71 -0.01 -0.05 -0.01 10681
0.22 0.20 -0.04 -1.02 9.69 -0.02 -0.05 -0.01 10688
0.20 0.19 -0.04 -0.96 9.77 -0.03 -0.03 -0.01 10695
0.18 0.19 -0.05 -0.96 9.75 -0.03 -0.03 -0.01 10702
0.18 0.20 0.00 -0.88 9.75 -0.01 -0.02 -0.01 10710
0.18 0.21 0.00 -0.95 9.78 0.01 -0.02 -0.02 10717
0.17 0.18 -0.01 -0.95 9.74 0.02 -0.02 -0.02 10724
0.20 0.19 -0.04 -0.98 9.66 0.03 -0.02 -0.03 10731
0.23 0.17 -0.06 -0.99 9.67 0.04 -0.01 -0.03 10738
0.25 0.15 -0.00 -0.99 9.70 0.05 -0.01 -0.04 10745
0.24 0.15 0.58 -0.98 9.79 0.05 -0.01 -0.04 10753
0.26 0.15 -0.01 -0.99 9.78 0.06 -0.01 -0.05 10760
0.27 0.14 -0.00 -1.01 9.82 0.08 -0.00 -0.05 10767
0.26 0.14 0.02 -1.01 9.76 0.09 -0.01 -0.05 10774
0.20 0.13 0.02 -1.01 9.82 0.12 -0.02 -0.06 10781
0.22 0.10 -0.58 -0.95 10.01 0.16 -0.02 -0.07 10788
0.26 0.06 -0.08 -0.91 10.03 0.22 -0.05 -0.07 10796
0.33 0.04 0.05 -1.02 10.38 0.29 -0.09 -0.07 10803
0.37 -0.01 0.07 -0.99 10.49 0.36 -0.17 -0.08 10810
0.35 0.00 0.34 -1.06 10.69 0.45 -0.29 -0.09 10817
0.37 -0.02 0.35 -1.47 11.07 0.52 -0.38 -0.14 10825
0.43 -0.02 0.55 -1.67 11.97 0.66 -0.54 -0.19 10832
0.47 -0.02 -0.94 -1.46 14.06 0.99 -0.97 -0.21 10840
0.52 -0.02 -0.96 -1.10 16.54 1.37 -1.43 -0.12 10847
0.54 -0.03 2.57 -1.75 16.50 1.84 -1.09 -0.19 10854
0.56 -0.04 -0.68 -1.25 16.08 2.15 -0.87 -0.28 10861
0.55 -0.03 0.37 -1.46 14.85 2.41 -1.12 -0.23 10868
0.56 -0.03 0.63 -1.74 14.96 2.66 -1.23 -0.27 10875
0.58 -0.00 0.53 -1.68 15.26 2.87 -1.38 -0.31 10883
0.52 -0.02 1.03 -1.85 15.81 3.11 -1.63 -0.36 10890
0.45 -0.02 1.60 -2.71 16.66 3.32 -1.81 -0.45 10897
0.47 -0.04 2.57 -3.06 16.71 3.58 -2.06 -0.60 10904
0.32 -0.02 3.72 -3.37 16.64 3.77 -2.47 -0.77 10911
0.22 -0.01 6.06 -4.20 16.54 3.82 -2.92 -1.04 10918
0.16 -0.01 6.77 -4.91 17.30 3.81 -3.19 -1.32 10926
0.15 -0.01 7.95 -5.89 17.17 3.76 -3.47 -1.70 10932
0.08 -0.01 9.18 -6.70 18.19 3.58 -3.68 -2.14 10939
0.07 -0.01 10.78 -6.60 18.08 3.27 -3.87 -2.51 10947
0.06 -0.01 11.84 -6.46 16.27 2.89 -3.94 -2.96 10954
0.05 -0.01 12.26 -4.19 13.79 2.51 -3.99 -3.27 10961
0.01 -0.00 11.32 -1.69 12.07 2.08 -4.05 -3.57 10968
0.00 0.00 10.89 -1.14 10.64 1.68 -4.27 -3.69 10975
0.00 0.00 16.18 -1.19 9.15 1.30 -4.28 -3.20 10982
0.00 0.00 25.33 -3.66 9.87 1.33 -3.24 -0.73 10989
0.00 0.00 25.15 1.11 13.51 0.46 -0.67 0.62 10996
0.00 0.00 18.11 -0.16 8.09 -0.19 0.45 1.73 11003
0.00 0.00 11.05 -0.60 8.22 -0.33 0.67 2.41 11011
0.00 0.00 8.58 -0.94 8.27 -0.27 0.34 2.60 11018
0.00 0.00 8.71 -0.11 7.96 -0.20 0.16 2.55 11025
0.00 0.00 8.78 0.84 8.50 -0.27 0.34 2.30 11032
0.00 0.00 8.24 1.41 8.95 -0.49 0.77 1.89 11039
-0.00 0.00 6.72 1.81 9.19 -0.72 1.16 1.41 11046
0.00 -0.00 4.67 1.92 9.32 -0.95 1.46 1.02 11054
0.00 0.00 3.32 2.08 9.56 -1.10 1.55 0.63 11061
0.00 0.00 3.01 2.32 9.77 -1.30 1.59 0.36 11068
0.00 0.00 3.09 2.52 10.06 -1.51 1.68 0.17 11075
0.00 0.00 2.70 2.63 10.51 -1.69 1.81 0.09 11082
0.00 0.00 2.00 2.73 10.61 -1.89 1.92 0.11 11089
0.00 0.00 1.18 2.73 10.62 -2.01 1.92 0.20 11097
0.00 0.00 0.64 2.81 10.33 -2.11 1.85 0.31 11104
0.00 0.00 0.46 2.66 10.17 -2.13 1.80 0.45 11111
0.00 0.00 0.71 2.47 10.24 -2.10 1.87 0.57 11118
-0.00 0.00 0.98 2.49 10.44 -2.05 1.97 0.61 11125
-0.00 0.01 0.86 2.71 11.12 -2.03 2.16 0.57 11132
0.00 0.00 0.59 3.10 11.83 -2.05 2.31 0.49 11140
0.00 0.00 -0.06 3.25 12.35 -2.13 2.41 0.37 11147
0.00 0.00 -0.51 3.07 13.09 -2.21 2.43 0.21 11154
0.00 0.00 -0.74 2.86 13.32 -2.31 2.41 0.07 11161
-0.00 0.01 -1.05 2.61 13.40 -2.37 2.44 -0.07 11168
-0.00 0.00 -1.95 2.40 13.37 -2.37 2.55 -0.18 11175
0.00 0.00 -3.34 2.17 13.62 -2.31 2.71 -0.27 11183
0.00 0.00 -4.82 2.08 14.09 -2.25 2.82 -0.39 11190
0.00 0.00 -5.72 2.16 14.42 -2.19 2.85 -0.50 11197
0.00 0.00 -6.40 1.96 14.73 -2.15 2.83 -0.60 11204
-0.00 0.00 -6.70 1.69 14.72 -2.14 2.74 -0.64 11211
0.00 0.00 -6.39 1.29 14.62 -2.13 2.56 -0.62 11218
0.00 0.00 -5.87 0.83 14.52 -2.10 2.34 -0.52 11226
0.00 0.00 -5.27 0.70 14.18 -2.04 2.18 -0.37 11233
0.00 0.00 -4.48 0.51 13.94 -1.96 2.06 -0.16 11240
-0.00 0.00 -3.85 0.27 13.73 -1.90 2.03 0.08 11247
-0.00 0.01 -3.65 0.07 13.48 -1.85 2.01 0.30 11254
0.01 0.00 -3.61 -0.09 13.14 -1.81 1.98 0.53 11261
-0.00 0.00 -3.71 -0.29 12.91 -1.79 1.91 0.76 11269
0.00 0.00 -3.93 -0.64 12.84 -1.74 1.80 0.91 11276
0.00 0.00 -4.61 -1.38 12.48 -1.65 1.67 1.05 11283
0.00 0.00 -5.30 -2.01 12.04 -1.51 1.60 1.10 11290
0.00 0.02 -6.10 -2.51 11.90 -1.35 1.50 1.07 11297
0.01 -0.00 -6.07 -2.80 12.39 -1.27 1.44 0.95 11304
0.00 -0.00 -6.30 -2.86 12.68 -1.31 1.42 0.81 11312
0.00 0.00 -6.30 -3.52 12.11 -1.48 1.42 0.62 11319
0.00 0.00 -5.07 -4.81 12.83 -1.79 1.23 0.43 11326
-0.00 0.00 -4.14 -6.96 11.52 -2.07 0.97 0.21 11333
-0.00 0.01 -3.26 -9.99 9.74 -2.14 0.94 0.02 11340
0.00 0.00 -2.93 -12.86 8.28 -1.98 1.04 -0.16 11347
0.00 0.00 -3.28 -15.47 7.14 -1.67 1.18 -0.37 11355
0.00 0.00 -3.73 -16.73 6.13 -1.22 1.29 -0.50 11362
0.00 0.00 -4.18 -17.30 5.93 -0.75 1.40 -0.57 11369
0.00 0.00 -15.13 -22.80 13.93 -0.16 0.31 -0.39 11376
0.00 0.00 -23.18 -21.55 3.82 0.44 -1.00 0.09 11384
-0.00 0.01 -20.26 -20.76 6.54 0.87 -3.03 0.90 11390
-0.00 0.02 -16.05 -25.61 4.96 1.02 -3.47 1.58 11399
-0.00 0.03 -23.02 -31.51 4.10 1.47 -4.28 2.26 11406
-0.00 0.09 -23.11 -37.81 3.29 2.06 -4.28 3.21 11413
-0.02 0.23 -37.44 -17.74 32.12 3.62 -4.19 4.25 11420
-0.05 0.57 -21.46 -6.48 22.81 4.23 -0.58 4.28 11427
-0.06 0.76 -23.41 -1.98 26.91 4.27 -0.32 2.87 11435
-0.05 0.76 -19.53 -12.29 42.38 3.29 -0.85 0.96 11442
-0.06 0.76 -1.29 -6.52 16.06 0.01 -1.10 -0.05 11449
-0.03 0.69 1.53 -3.75 12.76 -0.03 -0.51 0.03 11456
-0.03 0.62 1.78 0.11 9.93 0.18 -0.45 0.11 11462
0.04 0.54 -0.48 0.32 8.46 0.16 -0.54 0.04 11469
0.06 0.54 -1.88 -0.73 8.42 0.05 -0.39 0.01 11476
0.11 0.52 -0.45 -2.17 9.72 -0.09 -0.16 0.03 11484
0.13 0.51 0.34 -1.25 10.48 -0.09 -0.10 0.01 11492
0.13 0.50 -0.10 -0.99 10.67 0.02 -0.08 0.02 11498
0.16 0.50 -0.00 -0.78 10.02 0.09 -0.06 0.03 11505
0.20 0.47 0.11 -1.06 9.80 0.11 -0.05 0.04 11512
0.23 0.41 0.03 -1.17 9.64 0.08 -0.05 0.04 11520
0.23 0.38 0.02 -1.04 9.86 0.06 -0.05 0.04 11527
0.22 0.37 -0.04 -0.86 9.87 0.06 -0.05 0.04 11534
0.26 0.36 -0.18 -0.87 9.96 0.07 -0.03 0.05 11541
0.29 0.31 -0.02 -0.91 9.76 0.08 -0.02 0.05 11548
0.32 0.28 0.01 -0.91 9.88 0.08 -0.02 0.06 11555
0.33 0.29 -0.61 -0.83 9.86 0.08 -0.01 0.05 11563
0.34 0.27 -0.02 -0.89 9.90 0.10 -0.00 0.05 11570
0.34 0.25 -0.02 -0.91 9.88 0.12 0.00 0.05 11577
0.35 0.23 -0.04 -0.92 9.85 0.13 0.01 0.05 11584
0.35 0.23 -0.01 -0.90 9.82 0.14 0.02 0.04 11591
0.33 0.17 0.01 -0.95 9.81 0.14 0.03 0.04 11598
0.31 0.15 0.00 -0.94 9.75 0.14 0.03 0.04 11606
0.30 0.14 0.04 -1.02 9.72 0.13 0.04 0.03 11613
0.29 0.12 0.11 -1.00 9.68 0.12 0.04 0.02 11620
0.28 0.11 0.11 -1.05 9.67 0.11 0.04 0.02 11627
0.28 0.11 0.13 -1.04 9.69 0.10 0.04 0.01 11634
0.26 0.09 0.11 -1.06 9.68 0.09 0.03 0.01 11641
0.25 0.08 0.21 -1.08 9.59 0.08 0.03 -0.00 11649
0.24 0.09 0.22 -1.06 9.58 0.07 0.03 -0.01 11656
0.24 0.08 0.17 -1.07 9.66 0.06 0.02 -0.02 11663
0.21 0.09 0.15 -1.10 9.63 0.05 0.02 -0.02 11670
0.21 0.08 0.22 -1.10 9.62 0.04 0.01 -0.02 11677
0.21 0.06 0.19 -1.12 9.62 0.03 0.00 -0.03 11684
0.20 0.08 0.17 -1.10 9.52 0.03 -0.00 -0.03 11692
0.18 0.07 0.09 -1.13 9.56 0.01 -0.01 -0.04 11699
0.18 0.07 0.10 -1.14 9.56 -0.01 -0.00 -0.04 11706
0.18 0.07 0.07 -1.11 9.66 -0.02 0.00 -0.04 11713
0.20 0.08 0.11 -1.07 9.71 -0.02 0.00 -0.04 11720
0.20 0.09 0.11 -1.10 9.72 -0.02 -0.00 -0.04 11727
0.20 0.08 0.09 -1.10 9.65 -0.02 -0.00 -0.03 11735
0.17 0.09 0.06 -1.11 9.65 -0.03 0.00 -0.03 11742
0.19 0.09 0.10 -1.11 9.63 -0.03 0.00 -0.03 11749
0.22 0.11 0.06 -1.10 9.69 -0.04 0.00 -0.03 11756
0.21 0.10 0.03 -1.14 9.63 -0.05 0.00 -0.03 11763
0.21 0.10 -0.00 -1.12 9.59 -0.05 0.01 -0.02 11770
0.22 0.10 0.05 -1.14 9.60 -0.06 0.01 -0.02 11778
0.20 0.11 0.05 -1.11 9.66 -0.08 0.01 -0.02 11785
0.20 0.13 0.03 -1.05 9.73 -0.08 0.02 -0.02 11792
0.20 0.13 0.03 -1.05 9.75 -0.08 0.02 -0.01 11799
0.18 0.13 0.07 -1.07 9.79 -0.08 0.02 -0.01 11806
0.18 0.14 0.05 -1.08 9.74 -0.07 0.01 -0.01 11813
0.19 0.16 0.03 -1.06 9.75 -0.07 0.02 -0.01 11821
0.16 0.19 0.07 -1.02 9.82 -0.07 0.02 -0.01 11828
0.17 0.21 0.07 -1.06 9.80 -0.06 0.02 -0.01 11835
0.20 0.19 0.04 -1.06 9.72 -0.06 0.02 -0.01 11842
0.21 0.20 0.06 -1.04 9.79 -0.05 0.02 -0.01 11849
0.22 0.22 0.11 -1.02 9.81 -0.04 0.02 -0.01 11856
0.21 0.20 0.15 -1.02 9.81 -0.03 0.01 -0.01 11864
0.21 0.22 0.06 -1.03 9.76 -0.00 0.00 -0.01 11871
0.22 0.24 0.09 -1.01 9.80 0.02 -0.00 -0.02 11878
0.24 0.22 0.09 -0.99 9.81 0.04 -0.01 -0.03 11885
0.25 0.20 0.05 -1.06 9.77 0.06 -0.01 -0.03 11892
0.22 0.18 0.07 -1.05 10.38 0.08 -0.00 -0.04 11899
0.24 0.17 0.11 -1.08 9.82 0.10 0.00 -0.04 11907
0.27 0.16 0.07 -1.08 9.87 0.11 0.01 -0.05 11914
0.30 0.12 0.06 -1.09 9.77 0.13 0.01 -0.06 11921
0.32 0.10 0.08 -1.09 9.79 0.14 0.01 -0.06 11928
0.32 0.07 0.02 -1.11 9.84 0.16 0.02 -0.07 11935
0.30 0.05 0.06 -1.12 9.80 0.18 0.02 -0.08 11942
0.31 0.05 0.10 -1.14 9.93 0.21 0.03 -0.08 11950
0.34 0.02 0.08 -1.13 10.05 0.25 0.00 -0.08 11957
0.33 0.01 0.11 -1.12 10.29 0.29 -0.03 -0.09 11964
0.33 -0.00 0.36 -1.72 10.31 0.33 -0.10 -0.09 11972
0.34 -0.01 0.14 -1.58 10.27 0.38 -0.16 -0.11 11979
0.37 -0.01 0.53 -1.39 10.78 0.44 -0.26 -0.14 11986
0.38 -0.01 0.35 -1.77 11.68 0.57 -0.35 -0.18 11994
0.40 -0.01 -0.17 -1.54 13.04 0.85 -0.54 -0.21 12001
0.45 -0.03 0.86 -1.48 13.72 1.14 -0.46 -0.23 12008
0.42 -0.02 0.32 -1.47 13.79 1.39 -0.25 -0.28 12015
0.39 -0.02 0.40 -1.65 14.85 1.62 -0.35 -0.28 12022
0.37 -0.02 0.82 -1.84 16.12 1.96 -0.47 -0.30 12029
0.35 -0.01 0.81 -1.79 16.39 2.38 -0.69 -0.33 12037
0.35 0.00 1.11 -1.83 16.11 2.71 -0.92 -0.38 12044
0.32 0.00 0.88 -1.94 17.16 3.04 -1.05 -0.42 12051
0.32 -0.02 2.66 -2.27 17.14 3.37 -1.36 -0.50 12058
0.29 -0.02 6.46 -3.02 16.64 3.66 -1.76 -0.71 12065
0.25 -0.01 9.69 -4.41 16.83 3.81 -2.31 -1.16 12072
0.17 -0.01 10.91 -5.86 16.59 3.91 -2.68 -1.72 12080
0.15 -0.01 12.15 -6.27 17.25 3.94 -2.90 -2.20 12087
0.15 -0.02 13.48 -5.89 16.83 3.96 -2.81 -2.77 12094
0.04 -0.00 15.10 -5.98 18.17 3.87 -2.50 -3.25 12101
0.06 -0.01 16.17 -4.72 17.11 3.61 -2.02 -3.79 12108
0.04 -0.00 13.37 -4.36 16.63 3.32 -1.60 -4.28 12115
0.02 -0.00 12.51 -1.15 16.36 2.95 -1.55 -4.28 12123
0.01 0.01 10.25 1.20 13.56 2.46 -1.72 -4.28 12130
0.00 0.00 11.01 4.16 11.92 2.11 -2.11 -4.28 12136
0.00 0.00 22.60 9.53 6.68 1.83 -2.39 -4.28 12143
0.00 0.00 20.00 1.73 16.09 1.77 -1.09 -2.68 12150
-0.00 0.00 20.83 5.55 12.92 0.78 0.70 -1.90 12157
-0.00 0.01 14.50 4.85 7.87 0.55 1.00 -1.02 12165
-0.00 0.01 11.06 4.84 9.43 0.40 0.85 -0.43 12172
-0.00 0.00 9.82 5.06 9.59 0.03 0.50 -0.13 12179
-0.00 0.01 10.12 6.10 8.58 -0.31 0.35 -0.02 12186
-0.00 0.00 10.34 6.04 8.31 -0.67 0.48 -0.12 12193
-0.00 0.00 9.81 5.67 8.49 -0.93 0.91 -0.42 12200
-0.00 0.01 8.82 5.15 8.15 -1.10 1.36 -0.80 12208
0.00 0.00 7.18 4.62 8.10 -1.26 1.81 -1.14 12215
0.00 0.00 5.86 3.86 8.21 -1.36 2.16 -1.51 12222
0.00 0.00 5.04 3.31 8.44 -1.45 2.35 -1.76 12229
0.00 0.00 4.21 2.65 8.89 -1.51 2.53 -1.93 12236
0.00 0.00 3.70 2.00 9.44 -1.56 2.64 -1.94 12243
-0.00 0.02 2.94 1.62 9.99 -1.58 2.78 -1.85 12251
0.00 0.00 2.39 1.06 10.71 -1.57 2.90 -1.62 12258
0.00 0.00 2.02 0.76 11.32 -1.55 2.93 -1.33 12265
0.00 0.00 1.68 0.30 11.91 -1.52 2.93 -0.93 12272
0.00 0.00 1.21 0.12 12.09 -1.49 2.90 -0.51 12279
-0.00 0.00 0.67 0.11 11.94 -1.46 2.87 -0.20 12286
-0.00 0.02 0.55 -0.33 12.39 -1.42 2.93 0.05 12294
-0.00 0.01 0.05 -0.64 12.95 -1.39 3.04 0.20 12301
-0.00 0.01 -0.96 -0.73 13.29 -1.35 3.21 0.20 12308
0.00 0.00 -2.01 -0.90 13.60 -1.33 3.36 0.15 12315
-0.00 0.00 -3.13 -0.93 13.97 -1.32 3.38 0.08 12322
-0.00 0.00 -3.51 -1.15 14.47 -1.33 3.36 0.02 12329
-0.00 0.01 -3.86 -1.33 14.82 -1.35 3.31 -0.02 12337
-0.00 0.01 -4.29 -1.38 14.80 -1.39 3.21 -0.00 12344
-0.00 0.00 -4.80 -1.43 14.54 -1.42 3.08 0.11 12351
0.00 0.00 -5.57 -1.52 14.22 -1.43 2.95 0.28 12358
-0.00 0.01 -6.18 -1.83 13.86 -1.41 2.75 0.51 12365
-0.00 0.00 -6.35 -2.04 13.60 -1.38 2.59 0.75 12372
0.00 0.00 -6.35 -2.27 13.66 -1.32 2.41 0.96 12380
0.00 0.00 -6.34 -2.48 13.58 -1.29 2.21 1.20 12387
0.00 0.00 -6.17 -2.59 13.29 -1.26 2.03 1.38 12394
0.00 0.00 -5.74 -2.85 13.16 -1.24 1.82 1.57 12401
-0.00 0.00 -5.36 -3.41 12.86 -1.26 1.63 1.71 12408
-0.00 0.01 -4.68 -3.79 12.53 -1.29 1.45 1.77 12416
0.00 0.01 -3.78 -4.36 12.02 -1.32 1.26 1.82 12424
-0.00 0.01 -2.98 -5.51 11.48 -1.35 1.12 1.77 12430
-0.00 0.00 -1.99 -5.64 10.97 -1.35 1.03 1.73 12437
0.00 0.00 -1.65 -6.35 10.22 -1.33 1.04 1.58 12444
-0.00 0.01 -2.15 -7.03 9.80 -1.27 1.14 1.37 12451
-0.00 0.01 -3.02 -7.99 9.28 -1.18 1.22 1.07 12459
-0.00 0.00 -3.67 -8.73 8.86 -1.09 1.22 0.72 12466
-0.00 0.00 -4.40 -9.14 8.53 -0.96 1.22 0.44 12473
0.00 0.00 -4.57 -9.38 8.60 -0.84 1.19 0.19 12480
0.00 0.00 -5.07 -9.58 8.65 -0.70 1.16 0.02 12487
-0.00 0.00 -6.61 -9.81 8.64 -0.56 1.12 -0.09 12494
-0.00 0.02 -7.76 -9.68 8.52 -0.44 1.02 -0.13 12502
-0.00 0.01 -8.51 -9.52 8.35 -0.32 0.80 -0.12 12509
-0.00 0.00 -8.83 -9.13 7.87 -0.21 0.57 -0.07 12516
0.00 0.00 -8.67 -8.40 7.34 -0.08 0.38 -0.01 12523
-0.00 0.01 -8.16 -7.40 6.87 0.05 0.20 0.06 12530
-0.00 0.01 -7.69 -6.37 6.58 0.14 0.12 0.13 12537
-0.00 0.01 -7.16 -5.42 6.35 0.21 0.06 0.19 12545
0.00 0.00 -6.50 -4.21 5.82 0.23 -0.01 0.24 12552
-0.00 0.00 -5.93 -2.92 5.07 0.21 -0.07 0.33 12559
0.00 0.00 -5.22 -1.28 4.46 0.15 -0.08 0.38 12566
-0.00 0.00 -4.70 0.27 3.87 0.10 0.03 0.50 12573
-0.00 0.01 -4.44 1.51 3.54 0.05 0.13 0.66 12580
0.00 -0.00 -8.09 1.40 0.75 0.01 0.22 0.92 12588
0.00 0.02 -77.90 -19.60 2.46 1.55 -4.28 2.65 12596
-0.01 0.06 1.45 4.73 3.70 1.52 -4.28 1.90 12602
-0.04 0.36 -48.62 -16.24 78.47 4.22 -4.20 2.31 12610
-0.05 0.83 -13.92 7.26 8.91 2.87 -2.94 1.83 12617
-0.06 0.88 -0.79 -1.50 32.78 1.03 -2.68 0.30 12624
0.03 0.79 -7.64 -3.26 23.21 -0.46 -0.85 -0.08 12632
0.01 0.82 -0.06 -3.44 14.00 0.24 -0.27 0.26 12638
0.06 0.70 3.27 1.46 8.38 0.23 -0.44 0.22 12645
0.07 0.61 1.03 0.63 8.39 0.31 -0.62 0.15 12652
0.11 0.45 -1.25 -1.00 7.58 0.21 -0.55 0.17 12659
0.14 0.45 -1.76 -3.42 8.53 0.12 -0.18 0.10 12666
0.17 0.43 -0.05 -1.82 9.94 0.05 -0.02 0.03 12674
0.26 0.36 -0.44 -0.86 11.04 0.11 0.01 0.02 12681
0.30 0.34 -0.38 -0.78 10.07 0.22 0.00 0.02 12688
0.33 0.26 -0.63 -1.45 9.41 0.20 0.04 0.04 12695
0.37 0.27 -0.33 -1.57 9.57 0.12 0.11 0.06 12702
0.38 0.27 0.35 -1.17 9.91 0.06 0.12 0.06 12709
0.42 0.25 0.40 -1.20 9.99 0.05 0.06 0.04 12717
0.43 0.25 0.08 -1.07 9.75 0.03 0.02 0.02 12724
0.44 0.23 -0.13 -1.04 9.66 0.01 0.02 0.02 12731
0.43 0.23 0.01 -0.98 9.87 -0.00 0.01 0.02 12738
0.43 0.25 0.00 -0.95 9.94 0.01 -0.00 0.03 12745
0.46 0.25 -0.11 -0.93 9.81 0.03 -0.01 0.02 12752
0.44 0.25 -0.15 -1.02 9.81 0.04 -0.01 0.02 12760
0.43 0.22 -0.14 -1.00 9.78 0.04 -0.00 0.02 12767
0.41 0.22 -0.20 -0.99 9.70 0.03 0.01 0.02 12774
0.39 0.22 -0.18 -1.03 9.71 0.02 0.03 0.02 12781
0.38 0.24 -0.11 -1.07 9.67 0.02 0.05 0.02 12788
0.38 0.22 -0.11 -1.03 9.67 0.01 0.06 0.02 12795
0.36 0.24 -0.06 -1.08 9.68 -0.00 0.07 0.02 12803
0.33 0.21 -0.02 -1.01 9.70 -0.01 0.07 0.01 12810
0.30 0.21 0.01 -1.04 9.66 -0.01 0.07 0.01 12817
0.29 0.22 -0.01 -1.06 9.63 -0.01 0.07 0.01 12824
0.27 0.24 0.01 -1.02 9.61 -0.01 0.06 0.00 12831
0.26 0.24 0.04 -1.08 9.70 -0.01 0.06 -0.00 12838
0.26 0.23 0.04 -1.04 9.62 -0.02 0.05 -0.01 12846
0.23 0.21 0.60 -1.05 9.66 -0.03 0.06 -0.01 12853
0.21 0.22 -0.01 -1.04 9.64 -0.03 0.06 -0.01 12860
0.18 0.23 0.02 -1.02 9.68 -0.03 0.06 -0.01 12867
0.18 0.25 0.06 -1.04 9.72 -0.03 0.06 -0.01 12874
0.20 0.24 0.03 -1.03 9.64 -0.03 0.06 -0.02 12881
0.20 0.23 0.00 -0.97 9.73 -0.02 0.05 -0.01 12889
0.20 0.24 0.04 -1.04 9.71 -0.01 0.05 -0.02 12896
0.18 0.25 0.01 -1.04 9.67 -0.01 0.04 -0.02 12903
0.20 0.25 0.01 -1.03 9.62 -0.00 0.04 -0.02 12910
0.20 0.25 0.02 -1.01 9.69 -0.00 0.04 -0.02 12917
0.20 0.24 0.03 -1.02 9.59 -0.01 0.07 -0.01 12924
0.20 0.24 0.08 -1.03 9.66 0.00 0.03 -0.02 12932
0.20 0.22 0.06 -1.04 9.73 0.00 0.03 -0.02 12939
0.18 0.22 0.05 -1.04 9.70 0.00 0.02 -0.02 12946
0.19 0.23 0.04 -1.04 9.71 0.01 0.02 -0.02 12953
0.20 0.24 0.02 -1.07 9.71 0.00 0.02 -0.02 12960
0.20 0.24 0.02 -1.05 9.68 0.00 0.02 -0.02 12967
0.19 0.23 -0.01 -1.06 9.70 -0.00 0.02 -0.02 12975
0.19 0.22 0.01 -1.07 9.69 0.00 0.02 -0.02 12982
0.18 0.22 -0.03 -1.03 9.72 0.00 0.02 -0.02 12989
0.19 0.24 -0.05 -1.07 9.69 0.00 0.02 -0.02 12996
0.18 0.25 -0.05 -1.09 9.71 -0.00 0.02 -0.02 13003
0.18 0.25 0.02 -1.05 9.71 -0.00 0.03 -0.02 13010
0.18 0.24 -0.02 -1.05 9.77 -0.00 0.03 -0.01 13018
0.18 0.25 -0.00 -1.03 9.81 0.01 0.03 -0.02 13025
0.18 0.25 0.02 -1.09 9.82 0.02 0.03 -0.02 13032
0.18 0.25 -0.02 -1.08 9.79 0.04 0.03 -0.02 13039
0.19 0.22 0.03 -1.02 9.82 0.06 0.02 -0.02 13046
0.18 0.19 0.09 -1.06 9.81 0.08 0.01 -0.02 13053
0.19 0.18 0.06 -1.06 9.70 0.09 0.00 -0.03 13061
0.18 0.18 0.05 -1.12 9.63 0.08 -0.00 -0.03 13068
0.19 0.17 0.02 -1.13 9.58 0.05 -0.00 -0.03 13075
0.19 0.14 -0.03 -1.18 9.56 0.04 0.00 -0.03 13082
0.22 0.14 -0.06 -1.17 9.67 0.03 0.01 -0.03 13089
0.21 0.10 -0.02 -1.15 9.70 0.02 0.02 -0.03 13096
0.21 0.09 -0.08 -1.11 9.64 0.02 0.03 -0.03 13104
0.20 0.09 -0.02 -1.15 9.79 0.03 0.04 -0.03 13111
0.21 0.09 0.03 -1.15 9.76 0.04 0.05 -0.03 13118
0.23 0.08 0.10 -1.06 9.79 0.05 0.05 -0.03 13125
0.23 0.08 0.07 -1.16 9.65 0.06 0.05 -0.03 13132
0.22 0.07 0.03 -1.10 9.71 0.05 0.04 -0.04 13139
0.22 0.07 0.05 -1.15 9.63 0.05 0.03 -0.04 13147
0.20 0.08 0.00 -1.19 9.63 0.04 0.03 -0.04 13154
0.20 0.09 0.04 -1.16 9.66 0.00 0.04 -0.04 13161
0.21 0.07 0.00 -1.22 9.70 0.03 0.04 -0.04 13168
0.23 0.06 0.02 -1.17 9.67 0.03 0.05 -0.04 13175
0.23 0.06 0.02 -1.16 9.83 0.04 0.06 -0.04 13182
0.22 0.07 0.02 -1.15 10.37 0.06 0.05 -0.04 13190
0.24 0.06 0.00 -1.20 9.72 0.10 0.05 -0.03 13197
0.26 0.05 0.01 -1.15 9.84 0.07 0.06 -0.03 13204
0.27 0.07 0.04 -1.23 9.80 0.09 0.06 -0.02 13211
0.26 0.05 0.10 -1.22 9.83 0.09 0.05 -0.02 13218
0.28 0.03 0.08 -1.26 9.81 0.11 0.04 -0.03 13225
0.27 0.00 0.18 -1.26 9.91 0.13 0.03 -0.03 13233
0.29 0.00 0.22 -1.21 9.99 0.15 0.01 -0.04 13240
0.32 0.00 0.07 -1.30 10.01 0.18 -0.01 -0.04 13247
0.32 -0.00 -0.01 -1.30 10.11 0.21 -0.04 -0.05 13254
0.29 0.01 -0.01 -1.25 10.34 0.25 -0.07 -0.04 13261
0.32 -0.01 0.03 -1.33 10.49 0.30 -0.14 -0.03 13268
0.35 -0.01 -0.23 -1.43 10.88 0.38 -0.25 -0.03 13277
0.38 -0.03 -0.15 -1.56 11.23 0.55 -0.39 -0.03 13284
0.39 -0.02 0.15 -1.56 11.75 0.77 -0.56 -0.04 13291
0.44 -0.03 0.97 -1.71 12.90 0.96 -0.52 -0.08 13298
0.44 -0.02 0.46 -1.72 13.13 1.18 -0.36 -0.16 13305
0.45 -0.04 0.21 -1.83 13.52 1.35 -0.53 -0.17 13313
0.45 -0.03 0.78 -1.95 13.28 1.55 -0.68 -0.19 13320
0.41 -0.02 0.63 -1.90 12.79 1.71 -0.84 -0.22 13327
0.38 -0.02 0.83 -2.09 13.06 1.88 -0.97 -0.28 13334
0.39 -0.03 1.65 -2.22 13.62 2.05 -1.15 -0.33 13341
0.37 -0.02 1.53 -2.55 14.47 2.22 -1.31 -0.43 13348
0.36 -0.03 2.19 -2.79 14.85 2.42 -1.51 -0.52 13356
0.35 -0.02 2.96 -3.52 15.21 2.60 -1.77 -0.67 13363
0.33 -0.01 3.80 -3.95 15.40 2.75 -2.00 -0.89 13370
0.27 -0.02 2.36 -3.61 15.70 2.91 -2.12 -1.06 13377
0.21 -0.02 1.40 -4.10 16.97 3.01 -2.35 -1.17 13384
0.14 -0.01 2.47 -3.93 16.75 3.09 -2.66 -1.25 13390
0.12 -0.01 3.82 -4.62 16.70 3.06 -2.98 -1.41 13398
0.07 -0.01 4.82 -5.22 17.35 2.93 -3.21 -1.63 13405
0.07 0.00 5.49 -4.54 17.00 2.71 -3.60 -1.86 13412
0.09 -0.01 5.77 -3.95 15.74 2.45 -4.04 -2.09 13419
0.06 -0.01 6.04 -2.86 15.09 2.16 -4.28 -2.22 13426
0.02 -0.00 5.08 -1.72 14.57 1.82 -4.28 -2.27 13433
0.00 0.00 5.74 -1.27 13.00 1.46 -4.28 -2.17 13441
0.00 0.00 11.16 -1.77 11.59 1.11 -4.28 -1.68 13448
-0.00 0.00 17.86 -1.26 9.39 1.04 -4.28 0.13 13455
0.00 0.00 20.65 0.68 12.63 0.31 -2.36 1.02 13462
0.00 0.00 16.78 -0.35 8.82 -0.39 -0.67 1.75 13469
0.00 0.00 10.08 -1.52 8.50 -0.58 0.11 2.31 13476
0.00 0.00 6.43 -2.37 7.75 -0.47 0.26 2.62 13484
0.00 0.00 4.55 -2.32 6.84 -0.22 0.04 2.82 13491
0.00 0.00 4.07 -1.79 6.64 -0.06 -0.17 2.85 13498
0.00 -0.00 4.38 -1.19 6.81 0.04 -0.26 2.75 13505
0.00 0.00 4.52 -0.38 7.05 0.04 -0.15 2.53 13512
0.00 0.00 4.33 0.22 7.02 -0.03 0.03 2.27 13519
0.00 0.00 3.95 0.67 7.31 -0.16 0.31 1.93 13527
0.00 0.00 3.63 0.91 7.49 -0.26 0.52 1.55 13534
0.00 -0.00 3.30 1.38 7.71 -0.40 0.75 1.22 13541
0.00 0.00 3.05 1.74 8.02 -0.55 0.98 0.86 13548
0.00 0.00 2.84 1.92 8.29 -0.74 1.17 0.59 13555
0.00 0.00 2.42 2.08 8.44 -0.94 1.37 0.32 13562
0.00 0.00 2.00 2.03 8.53 -1.09 1.53 0.14 13570
-0.00 0.01 1.37 1.97 8.71 -1.24 1.67 0.03 13577
-0.00 0.00 0.78 1.80 8.95 -1.34 1.78 -0.03 13584
0.00 0.00 0.32 1.62 9.15 -1.45 1.80 -0.05 13591
0.00 0.00 0.02 1.48 9.32 -1.54 1.75 -0.06 13598
-0.00 0.00 0.12 1.21 9.58 -1.62 1.69 -0.04 13605
0.00 0.00 0.38 1.01 9.81 -1.70 1.65 -0.02 13613
0.00 0.00 0.79 0.71 10.12 -1.76 1.68 0.01 13620
0.00 -0.00 0.94 0.40 10.48 -1.82 1.73 0.03 13627
0.00 0.00 0.97 0.23 10.95 -1.86 1.81 0.04 13634
0.00 0.00 1.12 0.16 11.56 -1.90 1.93 0.06 13641
0.00 0.00 1.16 0.20 12.08 -2.00 2.06 0.05 13648
0.00 0.00 0.78 -0.03 12.42 -2.12 2.21 0.03 13656
-0.00 0.01 0.25 -0.44 12.34 -2.22 2.29 -0.01 13663
0.00 0.00 -0.07 -0.93 12.29 -2.26 2.28 -0.06 13670
-0.00 0.00 -0.08 -1.29 12.24 -2.24 2.22 -0.11 13677
0.00 0.00 0.14 -1.33 12.85 -2.15 2.20 -0.15 13684
-0.00 0.01 0.03 -1.32 12.67 -2.06 2.27 -0.18 13691
0.00 0.00 -0.27 -1.35 13.18 -2.00 2.34 -0.18 13699
-0.00 0.00 -0.68 -1.26 13.53 -1.97 2.35 -0.16 13706
0.00 0.00 -0.94 -1.14 13.94 -1.97 2.31 -0.11 13713
0.00 0.00 -1.30 -1.21 13.97 -1.98 2.25 -0.05 13720
0.00 0.00 -1.40 -1.33 13.89 -2.00 2.15 0.03 13727
0.00 0.00 -1.34 -1.49 13.77 -2.01 2.07 0.09 13734
0.00 0.00 -1.54 -1.49 13.60 -2.02 2.04 0.14 13742
0.00 -0.00 -1.97 -1.55 13.48 -2.03 2.06 0.17 13749
0.00 0.00 -2.58 -1.58 13.40 -2.04 2.04 0.20 13756
0.00 0.00 -3.35 -1.69 13.21 -2.06 1.94 0.24 13763
0.00 0.00 -3.46 -1.77 12.95 -2.06 1.79 0.27 13770
0.00 0.00 -3.20 -1.86 12.79 -2.08 1.64 0.30 13777
-0.00 0.01 -2.62 -2.04 12.60 -2.09 1.53 0.31 13785
0.00 0.00 -2.24 -2.93 12.53 -2.10 1.48 0.32 13792
0.00 0.00 -2.03 -2.75 12.26 -2.12 1.45 0.28 13799
0.00 0.00 -2.22 -3.45 11.82 -2.12 1.39 0.20 13806
0.00 0.00 -2.10 -3.95 11.47 -2.09 1.31 0.11 13813
0.00 0.00 -1.98 -4.74 11.03 -2.04 1.26 -0.03 13820
-0.00 0.01 -2.18 -5.73 10.67 -1.98 1.26 -0.24 13828
0.00 0.00 -2.67 -6.47 10.38 -1.87 1.29 -0.44 13835
0.00 0.00 -3.49 -7.54 10.03 -1.76 1.32 -0.70 13842
0.00 0.00 -4.41 -8.49 9.83 -1.65 1.38 -0.92 13849
0.00 0.00 -5.75 -9.71 9.52 -1.54 1.47 -1.13 13856
0.00 0.00 -7.77 -10.55 9.47 -1.45 1.51 -1.21 13863
-0.00 0.01 -8.66 -10.98 9.26 -1.34 1.48 -1.14 13871
0.01 -0.00 -10.10 -11.34 8.89 -1.19 1.30 -0.91 13879
0.00 0.00 -10.83 -11.59 8.20 -1.06 1.08 -0.55 13885
0.00 0.00 -10.91 -11.90 7.40 -0.84 0.82 -0.21 13892
0.00 0.00 -10.63 -12.14 6.19 -0.59 0.61 0.19 13899
0.00 0.00 -9.88 -12.04 5.16 -0.22 0.53 0.51 13906
0.01 -0.00 -25.95 -22.66 10.30 0.73 -1.07 0.90 13915
-0.00 0.01 -32.44 -16.89 -0.88 1.39 -3.83 1.80 13922
-0.00 0.02 -14.01 -20.39 0.93 1.92 -4.28 2.23 13929
0.00 0.04 -18.21 -31.56 7.21 2.44 -4.28 2.64 13936
-0.01 0.09 -16.27 -7.51 20.36 3.27 -4.28 2.96 13943
-0.05 0.54 -17.87 -2.59 32.12 4.07 -1.36 3.04 13950
-0.05 0.77 -15.44 0.69 26.40 3.70 -1.36 1.65 13958
-0.05 0.80 -12.47 -6.73 27.60 3.46 -1.45 0.44 13965
-0.06 0.69 2.26 -3.20 14.96 0.63 -1.73 -0.13 13972
-0.03 0.68 0.36 -3.13 13.58 -0.04 -0.70 0.22 13979
-0.03 0.64 0.29 -1.43 10.85 0.24 -0.56 0.17 13986
-0.02 0.60 -0.00 0.99 9.02 0.22 -0.51 0.16 13992
0.05 0.46 -0.36 -0.12 8.69 0.19 -0.48 0.15 14000
0.08 0.39 -1.26 -2.93 8.64 0.07 -0.34 0.10 14007
0.07 0.42 0.03 -2.16 9.53 -0.04 -0.20 0.03 14014
0.11 0.42 0.38 -1.20 10.35 -0.09 -0.15 0.01 14022
0.14 0.46 -0.38 -0.90 10.19 -0.05 -0.11 0.00 14028
0.15 0.45 -0.24 -0.88 9.84 0.01 -0.06 0.02 14035
0.17 0.42 0.11 -1.04 9.62 0.02 -0.02 0.02 14043
0.17 0.42 0.37 -1.15 9.53 -0.00 -0.01 0.02 14050
0.19 0.42 0.28 -0.99 9.76 -0.02 -0.02 0.01 14057
0.20 0.45 0.03 -0.89 9.83 -0.01 -0.01 0.01 14064
0.22 0.45 -0.02 -0.86 9.74 -0.01 0.00 0.01 14071
0.24 0.45 0.01 -0.80 9.64 -0.01 0.02 0.02 14078
0.25 0.41 0.06 -0.78 9.84 0.01 0.02 0.02 14086
0.27 0.40 0.03 -0.80 9.82 0.03 0.02 0.02 14093
0.28 0.37 0.08 -0.80 9.89 0.05 0.02 0.02 14100
0.27 0.37 0.02 -0.80 9.91 0.07 0.01 0.01 14107
0.30 0.33 0.00 -0.81 9.87 0.09 0.02 0.02 14114
0.29 0.33 -0.01 -0.83 9.78 0.10 0.03 0.02 14121
0.28 0.31 0.01 -0.84 9.20 0.10 0.04 0.01 14129
0.28 0.30 0.04 -0.85 9.76 0.09 0.05 0.01 14136
0.26 0.25 0.09 -0.92 9.68 0.09 0.05 0.01 14143
0.24 0.23 0.11 -0.92 9.65 0.08 0.06 0.01 14150
0.24 0.24 0.11 -0.92 9.64 0.07 0.06 0.00 14157
0.24 0.23 0.11 -0.94 9.71 0.06 0.06 0.00 14164
0.25 0.19 0.12 -0.92 9.63 0.05 0.06 -0.00 14172
0.22 0.17 0.13 -0.97 9.64 0.04 0.06 -0.00 14179
0.20 0.17 0.16 -0.96 9.63 0.02 0.06 -0.01 14186
0.19 0.19 0.21 -0.95 9.69 0.01 0.06 -0.01 14193
0.18 0.20 0.27 -0.93 9.64 -0.00 0.05 -0.01 14200
0.19 0.17 0.25 -0.93 9.69 -0.01 0.04 -0.01 14208
0.17 0.18 0.25 -0.93 9.74 -0.02 0.03 -0.02 14215
0.17 0.18 0.18 -0.93 9.69 -0.01 0.02 -0.02 14222
0.17 0.19 0.19 -0.93 9.63 -0.02 0.01 -0.02 14229
0.16 0.21 0.16 -0.94 9.60 -0.03 0.01 -0.02 14236
0.14 0.23 0.18 -0.95 9.68 -0.04 0.01 -0.02 14243
0.15 0.23 0.08 -0.96 9.68 -0.04 0.01 -0.02 14251
0.13 0.23 0.14 -0.91 9.67 -0.05 0.02 -0.02 14258
0.14 0.24 0.09 -0.90 9.62 -0.06 0.03 -0.02 14265
0.11 0.26 0.13 -0.92 9.64 -0.07 0.04 -0.01 14272
0.12 0.26 0.12 -0.95 9.65 -0.09 0.06 -0.01 14279
0.13 0.27 0.12 -0.94 9.74 -0.10 0.07 -0.00 14286
0.12 0.27 0.11 -0.90 9.72 -0.11 0.08 0.00 14294
0.11 0.33 0.17 -0.90 9.76 -0.11 0.07 0.00 14301
0.13 0.33 0.15 -0.89 9.79 -0.11 0.07 0.01 14308
0.10 0.35 0.21 -0.84 9.73 -0.10 0.05 0.01 14315
0.07 0.39 0.17 -0.80 9.59 -0.09 0.04 0.01 14322
0.08 0.39 0.22 -0.79 9.73 -0.07 0.03 0.01 14329
0.11 0.40 0.19 -0.79 9.66 -0.04 0.01 0.00 14337
0.11 0.41 0.18 -0.79 9.77 -0.02 -0.01 0.00 14344
0.10 0.42 0.16 -0.81 9.71 -0.01 -0.02 -0.00 14351
0.09 0.43 0.20 -0.89 9.78 0.01 -0.03 -0.00 14358
0.10 0.44 0.14 -0.90 9.77 0.01 -0.04 -0.00 14365
0.12 0.43 0.09 -0.88 9.74 0.01 -0.04 -0.00 14372
0.11 0.41 0.08 -0.87 9.72 0.02 -0.04 -0.01 14380
0.10 0.41 0.09 -0.84 9.70 0.02 -0.03 -0.01 14387
0.09 0.41 0.06 -0.83 9.75 0.03 -0.03 -0.01 14394
0.11 0.39 0.13 -0.84 9.72 0.03 -0.03 -0.01 14401
0.11 0.40 0.08 -0.84 9.72 0.04 -0.02 -0.01 14408
0.12 0.35 0.12 -0.86 9.69 0.05 -0.02 -0.01 14415
0.12 0.34 0.10 -0.89 9.80 0.05 -0.02 -0.01 14423
0.13 0.32 0.02 -0.87 9.65 0.07 -0.01 -0.01 14430
0.13 0.28 0.07 -0.93 9.78 0.08 -0.01 -0.02 14437
0.15 0.24 0.00 -0.94 9.71 0.09 -0.01 -0.02 14444
0.15 0.23 0.12 -0.91 9.70 0.10 -0.00 -0.02 14451
0.16 0.20 0.03 -0.92 9.76 0.11 0.00 -0.03 14458
0.18 0.16 0.11 -0.97 9.73 0.12 0.01 -0.03 14466
0.21 0.12 0.61 -0.91 9.77 0.13 0.01 -0.04 14473
0.19 0.14 0.08 -1.00 9.72 0.13 0.01 -0.03 14480
0.22 0.15 -0.00 -1.00 9.77 0.13 0.02 -0.04 14487
0.23 0.13 0.02 -0.99 9.83 0.14 0.02 -0.04 14494
0.22 0.16 0.11 -1.06 9.97 0.16 0.02 -0.04 14501
0.22 0.06 0.20 -0.98 9.97 0.19 0.01 -0.04 14509
0.23 0.04 0.17 -0.99 10.14 0.23 -0.01 -0.04 14516
0.25 0.01 0.23 -1.04 10.27 0.28 -0.03 -0.04 14523
0.26 0.02 0.28 -1.10 10.52 0.33 -0.07 -0.04 14530
0.30 0.00 0.28 -1.06 10.70 0.39 -0.15 -0.04 14537
0.30 0.00 -0.02 -1.14 11.67 0.46 -0.32 -0.04 14544
0.34 -0.00 -0.19 -1.37 12.52 0.62 -0.55 -0.03 14553
0.35 -0.01 -0.17 -1.77 14.02 0.97 -1.12 -0.06 14560
0.40 -0.03 1.88 -1.82 14.08 1.25 -1.45 -0.11 14567
0.44 -0.01 2.57 -1.76 14.32 1.50 -1.13 -0.27 14574
0.41 -0.03 0.33 -1.65 14.81 1.68 -1.21 -0.36 14581
0.40 -0.03 0.93 -1.84 14.90 1.91 -1.49 -0.38 14588
0.39 -0.03 1.04 -1.78 15.14 2.16 -1.71 -0.45 14596
0.37 -0.02 0.68 -2.00 16.08 2.38 -1.94 -0.51 14603
0.34 -0.03 0.91 -2.13 16.20 2.61 -2.17 -0.56 14610
0.28 -0.00 1.62 -2.16 16.32 2.83 -2.37 -0.63 14617
0.27 -0.01 1.35 -3.04 16.14 3.00 -2.60 -0.72 14624
0.21 -0.01 1.95 -3.35 16.14 3.13 -2.93 -0.83 14631
0.16 -0.02 3.96 -3.77 16.62 3.19 -3.20 -0.98 14638
0.11 -0.01 4.64 -3.88 15.82 3.24 -3.30 -1.18 14646
0.09 -0.00 5.16 -4.49 16.60 3.23 -3.39 -1.45 14653
0.08 -0.00 5.45 -4.73 18.07 3.15 -3.56 -1.71 14660
0.09 -0.01 5.88 -4.30 18.22 2.99 -3.83 -1.92 14666
0.07 -0.01 5.96 -3.40 17.41 2.83 -4.16 -2.13 14673
0.05 -0.01 5.47 -1.93 16.57 2.60 -4.28 -2.23 14681
0.03 -0.00 4.97 -1.06 16.13 2.21 -4.28 -2.19 14688
0.02 0.01 5.74 -1.32 15.11 1.86 -4.28 -1.91 14696
0.01 -0.00 13.17 -3.29 12.13 1.54 -4.28 -1.10 14703
0.00 -0.00 18.28 -0.44 14.72 1.54 -3.74 1.03 14709
0.00 0.00 23.38 1.15 10.23 0.77 -1.41 1.79 14716
0.00 0.00 15.25 0.01 10.04 0.54 -0.12 2.65 14724
0.00 0.00 9.81 0.39 10.32 0.50 0.34 3.23 14731
-0.00 0.00 7.12 0.77 9.98 0.43 0.18 3.51 14738
0.00 0.00 6.63 1.54 9.83 0.31 -0.11 3.59 14745
0.00 0.00 7.43 2.19 9.77 0.07 -0.12 3.44 14752
0.00 0.00 7.73 2.94 9.47 -0.20 0.12 3.06 14759
0.00 0.00 7.20 3.40 9.04 -0.41 0.44 2.52 14767
0.00 0.00 6.16 3.51 8.83 -0.63 0.80 1.96 14774
-0.00 0.01 5.27 3.52 8.88 -0.82 1.10 1.29 14781
0.00 0.00 4.72 3.57 8.91 -0.97 1.31 0.71 14788
0.00 0.00 4.36 3.53 9.00 -1.15 1.56 0.07 14795
0.00 0.00 4.16 3.64 9.17 -1.31 1.84 -0.49 14802
0.00 0.00 3.60 3.72 9.36 -1.48 2.12 -0.88 14810
-0.00 0.00 2.28 3.54 9.45 -1.65 2.41 -1.23 14817
-0.00 0.01 1.00 3.33 9.68 -1.73 2.58 -1.45 14824
-0.00 0.01 -0.01 3.14 9.92 -1.77 2.70 -1.56 14831
-0.00 0.00 -0.72 2.98 10.14 -1.78 2.75 -1.58 14838
0.00 0.00 -1.04 2.87 10.42 -1.75 2.80 -1.52 14845
-0.00 0.00 -1.35 2.88 10.71 -1.71 2.83 -1.37 14853
-0.00 0.01 -1.46 2.87 11.21 -1.69 2.85 -1.17 14860
-0.00 0.02 -1.46 2.86 11.73 -1.68 2.85 -1.00 14867
-0.00 0.00 -1.37 2.77 12.10 -1.71 2.82 -0.79 14874
-0.00 0.00 -1.22 2.59 12.57 -1.76 2.80 -0.64 14881
0.00 0.00 -1.19 2.21 12.88 -1.83 2.78 -0.51 14888
-0.00 0.00 -1.35 1.76 12.91 -1.89 2.76 -0.42 14896
-0.00 0.01 -1.49 1.53 12.95 -1.94 2.75 -0.37 14903
-0.00 0.01 -1.64 1.09 13.15 -1.99 2.75 -0.36 14910
-0.00 0.01 -1.75 0.78 13.50 -2.04 2.74 -0.40 14917
-0.00 0.01 -1.63 0.29 13.85 -2.09 2.73 -0.40 14924
-0.00 0.00 -1.61 -0.33 14.03 -2.14 2.73 -0.44 14931
-0.00 0.01 -1.73 -0.74 13.93 -2.19 2.76 -0.48 14939
-0.00 0.01 -1.94 -1.01 13.68 -2.21 2.80 -0.52 14946
-0.00 0.01 -2.28 -1.29 13.60 -2.22 2.85 -0.54 14953
0.00 0.00 -2.91 -1.46 13.55 -2.19 2.88 -0.54 14960
0.00 0.00 -3.55 -1.54 13.52 -2.16 2.84 -0.50 14967
0.00 0.00 -4.02 -1.54 13.49 -2.12 2.85 -0.44 14974
0.00 0.00 -4.54 -1.53 13.46 -2.10 2.80 -0.33 14982
-0.00 0.01 -4.94 -1.68 13.41 -2.09 2.71 -0.20 14989
0.00 0.00 -5.68 -1.65 13.40 -2.09 2.58 -0.08 14996
0.00 0.00 -6.48 -1.79 13.19 -2.10 2.41 0.03 15003
0.00 0.00 -6.96 -1.87 12.84 -2.13 2.25 0.08 15010
0.00 0.00 -7.45 -2.40 12.54 -2.18 2.08 0.06 15017
0.00 0.00 -7.51 -3.36 11.96 -2.24 1.90 -0.07 15025
-0.00 0.01 -7.07 -4.25 11.58 -2.30 1.68 -0.28 15032
0.00 -0.00 -6.14 -5.36 11.05 -2.37 1.54 -0.59 15039
0.00 0.00 -5.50 -6.33 10.64 -2.33 1.52 -0.88 15046
0.00 0.00 -5.51 -7.69 10.40 -2.29 1.57 -1.22 15053
0.00 0.00 -6.71 -9.26 9.84 -2.22 1.64 -1.53 15060
0.00 0.00 -7.46 -10.62 9.57 -2.10 1.68 -1.71 15068
-0.00 0.00 -9.03 -11.98 9.34 -1.97 1.61 -1.79 15075
0.00 0.00 -10.22 -13.40 8.82 -1.74 1.46 -1.67 15082
0.00 0.00 -11.15 -13.20 8.38 -1.48 1.16 -1.43 15089
0.00 0.00 -11.28 -13.12 8.02 -1.24 0.76 -1.02 15096
0.00 0.00 -10.21 -12.76 7.40 -0.99 0.49 -0.59 15104
0.00 0.00 -8.73 -12.05 7.64 -0.80 0.38 -0.09 15111
0.01 0.02 -56.17 -31.18 22.40 0.16 -2.37 0.73 15119
-0.00 0.02 -35.93 -18.70 0.97 0.61 -4.28 1.91 15126
-0.00 0.05 -10.09 -25.48 3.57 1.25 -4.28 2.47 15133
0.00 0.08 -12.49 -1.79 21.00 2.31 -4.28 3.38 15140
-0.05 0.53 -24.68 -2.11 25.94 3.29 -1.85 4.26 15148
-0.08 0.89 -25.11 1.84 29.83 3.51 -1.10 3.14 15155
-0.07 0.96 -18.44 -4.49 21.85 3.66 -1.50 1.53 15162
-0.05 0.86 -10.87 -6.20 15.56 3.13 -0.64 0.34 15169
-0.05 0.83 2.07 -5.04 24.87 2.50 -0.01 0.14 15175
-0.05 0.68 3.43 0.30 10.83 0.20 -0.52 0.30 15182
-0.03 0.59 0.65 -2.10 12.61 0.03 -0.60 0.26 15190
-0.01 0.54 -0.34 -0.33 8.74 0.21 -0.64 0.17 15197
0.05 0.47 -1.38 -1.09 7.53 0.04 -0.45 0.08 15204
0.09 0.48 -1.36 -2.57 9.89 -0.03 -0.21 0.02 15211
0.11 0.45 0.09 -1.54 10.91 -0.03 -0.07 0.01 15218
0.14 0.46 0.04 -0.99 10.26 0.04 -0.06 0.03 15225
0.14 0.43 0.18 -1.26 9.82 0.05 -0.06 0.03 15233
0.17 0.39 0.12 -1.37 9.90 0.01 -0.06 0.02 15240
0.19 0.41 0.02 -1.19 9.89 -0.02 -0.06 0.03 15247
0.20 0.40 -0.11 -0.93 9.67 -0.03 -0.05 0.03 15254
0.20 0.41 0.00 -0.83 9.80 -0.04 -0.02 0.04 15261
0.19 0.43 -0.08 -0.83 9.92 -0.03 -0.01 0.05 15268
0.20 0.43 -0.03 -0.82 9.92 -0.03 -0.01 0.06 15276
0.22 0.42 0.13 -0.81 9.99 -0.01 -0.01 0.05 15283
0.23 0.44 0.02 -0.77 10.05 0.01 -0.02 0.06 15290
0.23 0.42 -0.04 -0.81 9.89 0.04 -0.03 0.05 15297
0.25 0.38 -0.07 -0.82 9.87 0.05 -0.02 0.05 15304
0.22 0.39 -0.00 -0.83 9.84 0.06 -0.03 0.06 15311
0.22 0.41 -0.06 -0.82 9.82 0.07 -0.02 0.06 15319
0.23 0.40 -0.05 -0.85 9.82 0.08 -0.01 0.05 15326
0.22 0.38 0.02 -0.92 9.74 0.08 -0.01 0.05 15333
0.19 0.34 0.01 -0.94 9.66 0.07 0.00 0.04 15340
0.18 0.31 0.05 -0.92 9.65 0.06 0.00 0.04 15347
0.17 0.34 0.07 -0.93 9.69 0.05 0.00 0.03 15354
0.18 0.31 0.11 -0.90 9.73 0.05 0.01 0.02 15362
0.19 0.30 0.08 -0.93 9.71 0.05 0.01 0.02 15369
0.16 0.29 0.08 -0.99 9.67 0.05 0.01 0.01 15376
0.17 0.24 0.11 -0.95 9.59 0.04 0.01 0.00 15383
0.13 0.25 0.17 -0.95 9.61 0.00 0.01 -0.00 15390
0.13 0.25 0.18 -0.92 9.66 0.03 0.00 -0.01 15397
0.13 0.24 0.11 -0.96 9.60 0.03 -0.00 -0.02 15405
0.13 0.25 0.13 -0.94 9.59 0.03 -0.01 -0.02 15412
0.12 0.23 0.11 -0.96 9.62 0.03 -0.02 -0.02 15419
0.13 0.22 0.12 -0.96 9.64 0.02 -0.02 -0.02 15426
0.11 0.21 0.12 -0.97 9.63 0.02 -0.02 -0.03 15433
0.14 0.20 0.10 -0.97 9.67 0.01 -0.03 -0.03 15440
0.15 0.21 0.07 -1.00 9.73 0.01 -0.03 -0.03 15448
0.14 0.23 0.07 -0.99 9.68 0.01 -0.03 -0.03 15455
0.15 0.21 0.04 -1.00 9.62 0.01 -0.03 -0.03 15462
0.16 0.20 0.08 -0.97 9.61 0.00 -0.03 -0.04 15469
0.15 0.19 0.08 -0.96 9.72 0.02 -0.03 -0.03 15476
0.17 0.20 0.07 -0.97 9.68 0.02 -0.03 -0.04 15483
0.18 0.21 0.00 -1.00 9.58 0.01 -0.03 -0.04 15491
0.19 0.22 0.01 -1.04 9.63 0.01 -0.02 -0.04 15498
0.17 0.18 -0.01 -0.98 9.61 0.01 -0.02 -0.04 15505
0.20 0.13 -0.06 -0.98 9.72 0.03 -0.01 -0.04 15512
0.21 0.17 0.01 -1.03 9.77 0.03 0.00 -0.03 15519
0.22 0.15 -0.04 -1.05 9.69 0.03 0.01 -0.03 15526
0.22 0.14 -0.02 -1.01 9.70 0.03 0.04 -0.03 15534
0.23 0.14 -0.08 -1.06 9.73 0.04 0.06 -0.02 15541
0.23 0.10 -0.04 -1.05 9.75 0.05 0.08 -0.02 15548
0.22 0.10 -0.05 -1.03 9.81 0.10 0.10 -0.02 15555
0.21 0.13 0.05 -1.01 9.76 0.08 0.10 -0.02 15562
0.21 0.11 0.05 -1.03 9.89 0.10 0.09 -0.02 15569
0.25 0.11 0.19 -1.02 9.87 0.11 0.06 -0.02 15577
0.27 0.08 0.14 -1.09 9.21 0.12 0.03 -0.02 15584
0.27 0.05 0.23 -1.05 9.81 0.12 0.00 -0.03 15591
0.27 0.05 0.05 -1.08 9.88 0.12 -0.01 -0.03 15598
0.30 0.07 0.14 -1.11 9.82 0.13 -0.04 -0.03 15605
0.30 0.05 0.15 -1.18 9.81 0.14 -0.06 -0.03 15612
0.33 0.02 0.05 -1.12 9.81 0.15 -0.07 -0.04 15620
0.32 0.01 0.10 -1.09 9.91 0.16 -0.08 -0.04 15627
0.31 -0.00 -0.42 -1.21 9.89 0.17 -0.09 -0.04 15634
0.32 -0.00 -0.01 -1.32 9.78 0.19 -0.09 -0.05 15641
0.33 0.00 0.13 -1.23 9.82 0.19 -0.09 -0.06 15648
0.38 -0.00 0.04 -1.26 9.88 0.21 -0.09 -0.10 15655
0.37 -0.00 0.16 -1.21 10.05 0.24 -0.09 -0.07 15663
0.32 0.01 0.04 -1.25 10.34 0.26 -0.16 -0.09 15670
0.37 -0.02 0.19 -1.38 10.63 0.33 -0.22 -0.09 15678
0.41 -0.03 -0.04 -1.46 11.39 0.41 -0.38 -0.10 15685
0.42 -0.02 -0.26 -1.53 11.78 0.59 -0.64 -0.08 15692
0.40 -0.03 0.02 -1.55 12.49 0.81 -0.87 -0.08 15698
0.38 -0.03 0.94 -1.66 14.86 1.05 -0.86 -0.13 15707
0.40 -0.02 0.84 -1.83 14.83 1.38 -0.77 -0.20 15713
0.43 -0.04 0.47 -1.74 14.44 1.69 -0.99 -0.23 15720
0.44 -0.03 1.33 -1.99 13.73 1.89 -1.18 -0.27 15728
0.40 0.00 0.72 -1.95 13.94 2.09 -1.33 -0.34 15734
0.34 -0.01 0.34 -2.03 15.21 2.29 -1.48 -0.39 15742
0.33 -0.01 0.23 -2.08 15.83 2.55 -1.64 -0.40 15750
0.31 -0.02 1.59 -2.38 15.81 2.80 -1.89 -0.44 15757
0.31 -0.02 2.46 -2.91 15.90 2.95 -2.13 -0.57 15764
0.25 -0.02 2.91 -3.32 15.45 3.09 -2.43 -0.73 15771
0.22 -0.01 3.55 -4.00 15.28 3.15 -2.75 -0.94 15778
0.15 -0.01 4.56 -4.08 15.06 3.19 -2.95 -1.18 15785
0.13 -0.01 4.83 -4.35 15.25 3.19 -3.09 -1.42 15793
0.09 -0.01 4.96 -4.85 15.68 3.17 -3.24 -1.69 15799
0.07 -0.01 5.44 -5.28 16.82 3.12 -3.38 -1.91 15806
0.05 -0.00 5.53 -4.81 16.96 3.03 -3.67 -2.19 15813
0.06 -0.01 5.35 -3.97 16.70 2.93 -4.09 -2.43 15820
0.07 -0.01 4.87 -2.55 16.63 2.82 -4.28 -2.55 15827
0.06 -0.01 3.42 -1.37 16.55 2.60 -4.28 -2.59 15835
0.04 -0.00 3.68 -0.39 16.20 2.19 -4.28 -2.46 15842
0.01 -0.00 5.59 -0.56 14.84 1.68 -4.28 -2.01 15849
0.00 -0.00 12.40 -2.61 9.95 1.32 -4.28 -0.74 15856
0.00 0.00 19.54 -0.51 15.20 0.98 -3.74 1.02 15863
0.00 0.00 22.47 0.38 9.70 0.11 -1.01 1.85 15870
0.00 0.00 15.08 -1.93 9.63 -0.18 0.15 2.58 15878
0.00 0.00 9.43 -3.36 10.49 -0.20 0.73 3.08 15885
0.00 0.00 6.81 -3.55 10.74 -0.07 0.62 3.40 15892
0.00 0.00 5.38 -2.40 10.50 -0.06 0.21 3.49 15899
0.00 0.00 6.08 -1.17 10.04 -0.23 -0.11 3.36 15906
0.00 0.00 7.30 -0.51 10.14 -0.49 -0.16 3.07 15913
0.00 0.00 7.65 0.01 9.97 -0.74 0.08 2.57 15921
0.00 0.00 7.53 0.34 9.77 -0.91 0.43 1.96 15928
0.00 0.00 7.15 0.67 9.73 -1.08 0.88 1.38 15935
-0.00 0.00 6.49 1.05 9.68 -1.23 1.29 0.70 15942
0.00 0.00 6.10 1.36 9.87 -1.42 1.57 0.16 15949
0.00 0.00 5.66 1.76 9.98 -1.60 1.89 -0.37 15956
0.00 0.00 4.84 2.13 10.02 -1.75 2.10 -0.77 15964
0.00 0.00 4.22 2.26 10.06 -1.89 2.27 -1.02 15971
-0.00 0.00 3.80 2.23 9.92 -2.00 2.39 -1.22 15978
-0.00 0.00 3.29 1.98 9.73 -2.00 2.51 -1.31 15985
0.00 0.00 2.75 1.70 9.67 -1.99 2.66 -1.36 15992
0.00 0.00 2.12 1.62 9.79 -1.95 2.79 -1.37 16000
0.00 0.00 1.57 1.71 9.98 -1.88 2.90 -1.36 16007
0.00 0.00 1.31 1.74 10.51 -1.84 2.96 -1.29 16014
0.00 0.00 1.43 2.43 10.83 -1.85 2.98 -1.20 16021
0.00 0.00 1.82 1.82 11.08 -1.89 3.00 -1.09 16028
0.00 0.00 2.00 1.56 11.39 -1.94 3.09 -1.01 16035
0.00 0.00 2.02 1.21 11.75 -2.01 3.22 -0.99 16043
0.00 0.00 1.81 0.90 12.20 -2.04 3.35 -1.01 16050
0.00 0.00 1.55 0.69 12.68 -2.04 3.45 -1.09 16057
-0.00 0.00 1.21 0.68 13.28 -2.01 3.54 -1.18 16064
0.00 0.01 0.93 0.75 13.90 -1.99 3.61 -1.28 16071
0.00 0.00 0.63 0.79 14.35 -1.97 3.68 -1.33 16078
0.00 0.00 0.15 0.84 14.75 -1.97 3.76 -1.34 16086
0.00 0.00 -1.13 1.03 14.94 -1.97 3.81 -1.28 16093
0.00 0.00 -1.55 1.06 15.00 -1.97 3.84 -1.19 16100
-0.00 0.00 -2.75 1.05 15.13 -1.95 3.84 -1.03 16107
0.00 0.00 -3.83 0.80 14.83 -1.91 3.79 -0.84 16114
0.00 0.00 -4.39 0.32 14.65 -1.89 3.66 -0.65 16121
0.00 0.00 -4.44 0.05 15.03 -1.85 3.46 -0.38 16129
0.00 0.00 -4.47 0.14 15.08 -1.78 3.37 -0.09 16136
0.00 0.00 -5.06 0.30 15.02 -1.74 3.30 0.28 16143
-0.00 0.01 -5.91 0.36 15.09 -1.70 3.19 0.66 16150
0.01 -0.00 -6.86 0.42 15.16 -1.69 2.99 0.99 16157
0.00 0.00 -7.69 0.29 15.00 -1.72 2.77 1.32 16164
0.00 0.00 -8.23 0.09 14.78 -1.80 2.58 1.55 16172
0.00 0.00 -8.70 -0.22 14.57 -1.90 2.34 1.74 16179
0.00 0.00 -8.76 -0.67 14.31 -2.00 2.10 1.82 16186
-0.00 0.00 -8.75 -1.15 14.05 -2.12 1.84 1.83 16193
0.00 0.00 -9.06 -2.09 13.53 -2.23 1.62 1.72 16200
0.00 0.00 -9.61 -3.19 13.29 -2.30 1.44 1.55 16207
0.00 0.00 -10.53 -4.96 12.90 -2.33 1.27 1.26 16215
-0.00 0.00 -11.67 -7.08 11.86 -2.33 1.13 0.94 16223
-0.00 0.01 -12.29 -9.95 8.54 -2.33 0.93 0.71 16229
-0.00 0.01 -8.10 -14.17 8.00 -2.30 0.28 0.43 16236
-0.00 0.00 -5.37 -17.22 7.02 -2.08 0.02 0.32 16243
-0.00 0.00 -3.24 -18.75 5.82 -1.68 0.33 0.38 16250
0.00 0.00 -4.74 -19.51 5.47 -1.26 0.75 0.61 16258
0.00 0.00 -7.36 -19.39 5.10 -0.73 0.94 0.95 16265
0.00 0.00 -39.09 -36.24 14.20 0.90 -2.40 1.68 16272
0.00 0.04 -47.79 -37.45 -1.94 1.76 -4.28 3.18 16280
0.01 0.08 -12.43 -31.55 -0.82 2.80 -4.28 3.60 16287
-0.01 0.16 -10.18 -11.83 14.84 4.09 -4.28 4.25 16294
-0.06 0.71 -36.28 -0.37 46.75 4.28 -2.23 4.28 16302
-0.08 1.00 -24.75 4.75 31.62 4.28 -2.42 2.91 16309
-0.06 0.93 -22.48 -10.07 22.62 4.28 -2.63 0.88 16316
-0.06 0.77 -10.65 -23.41 74.05 4.02 -3.07 -0.33 16323
-0.02 0.67 4.24 -8.47 10.48 -0.78 -0.75 -0.04 16330
0.02 0.61 1.83 -2.50 11.18 0.19 -0.44 0.12 16337
0.01 0.57 -0.16 2.19 9.95 0.28 -0.39 0.14 16344
0.04 0.48 -0.71 0.68 7.97 0.34 -0.35 0.07 16351
0.08 0.39 0.25 -1.32 8.93 0.31 -0.25 0.08 16358
0.11 0.28 0.68 -1.14 9.05 0.19 -0.15 0.03 16365
0.14 0.33 0.37 -1.94 9.62 0.06 -0.11 -0.00 16372
0.17 0.35 -0.33 -1.10 10.46 0.05 -0.06 -0.01 16380
0.15 0.32 -0.41 -0.94 10.15 0.12 0.01 0.02 16387
0.21 0.27 0.26 -1.20 9.68 0.12 0.04 0.03 16394
0.22 0.24 0.37 -1.23 9.69 0.05 0.05 0.03 16401
0.24 0.23 0.38 -1.12 9.53 -0.00 0.04 0.04 16408
0.26 0.21 0.23 -0.93 9.68 -0.06 0.05 0.04 16415
0.26 0.23 0.18 -0.86 9.73 -0.10 0.05 0.04 16422
0.22 0.24 0.14 -0.91 9.75 -0.13 0.06 0.04 16430
0.24 0.26 0.12 -0.83 9.60 -0.15 0.06 0.05 16437
0.22 0.32 0.16 -0.76 9.86 -0.14 0.06 0.05 16444
0.22 0.35 0.23 -0.69 9.93 -0.10 0.05 0.05 16451
0.22 0.34 0.10 -0.78 9.94 -0.06 0.04 0.05 16458
0.21 0.34 0.02 -0.77 9.82 -0.02 0.04 0.05 16465
0.19 0.36 0.07 -0.81 9.72 -0.01 0.06 0.05 16473
0.19 0.36 0.14 -0.78 9.75 -0.02 0.06 0.05 16480
0.20 0.37 0.15 -0.84 9.76 -0.02 0.07 0.06 16487
0.18 0.37 0.14 -0.84 9.75 -0.03 0.07 0.05 16494
0.14 0.37 0.14 -0.86 9.65 -0.02 0.07 0.05 16501
0.12 0.36 0.15 -0.84 9.65 -0.04 0.07 0.05 16508
0.12 0.38 0.22 -0.84 9.68 -0.04 0.07 0.05 16516
0.13 0.39 0.21 -0.84 9.72 -0.05 0.07 0.05 16523
0.12 0.41 0.22 -0.81 9.72 -0.05 0.07 0.04 16530
0.09 0.41 0.26 -0.79 9.73 -0.05 0.07 0.04 16537
0.10 0.40 0.27 -0.83 9.71 -0.04 0.05 0.04 16544
0.09 0.40 0.27 -0.83 9.75 -0.03 0.05 0.03 16551
0.07 0.41 0.31 -0.81 9.69 -0.02 0.04 0.03 16559
0.07 0.40 0.26 -0.83 9.67 -0.02 0.02 0.02 16566
0.06 0.39 0.23 -0.81 9.63 -0.01 0.02 0.02 16573
0.08 0.39 0.30 -0.76 9.63 -0.01 0.01 0.02 16580
0.03 0.40 0.27 -0.78 9.63 -0.01 -0.00 0.02 16587
0.06 0.40 0.32 -0.80 9.63 -0.02 -0.00 0.01 16594
0.06 0.41 0.30 -0.81 9.61 -0.01 -0.02 0.01 16602
0.06 0.42 0.30 -0.79 9.65 -0.01 -0.03 0.01 16609
0.09 0.40 0.30 -0.82 9.71 0.00 -0.04 0.01 16616
0.08 0.40 0.23 -0.84 9.66 0.01 -0.05 0.01 16623
0.09 0.41 0.28 -0.85 9.69 0.01 -0.05 0.00 16630
0.07 0.41 0.27 -0.83 9.74 0.02 -0.06 -0.00 16637
0.12 0.39 0.22 -0.87 9.67 0.02 -0.06 -0.00 16645
0.11 0.41 0.22 -0.86 9.61 0.02 -0.06 -0.00 16652
0.06 0.39 0.19 -0.86 9.62 0.01 -0.05 -0.00 16659
0.04 0.41 0.16 -0.87 9.62 -0.00 -0.04 -0.01 16666
0.04 0.41 0.20 -0.84 9.70 -0.01 -0.04 -0.01 16673
0.02 0.39 0.19 -0.86 9.75 -0.01 -0.03 -0.00 16680
0.03 0.39 0.18 -0.83 9.60 -0.01 -0.02 -0.01 16688
0.05 0.40 0.12 -0.88 9.71 -0.01 -0.02 -0.01 16695
0.06 0.40 0.15 -0.84 9.71 -0.02 -0.02 -0.00 16702
0.05 0.41 0.17 -0.87 9.75 -0.01 -0.01 -0.00 16709
0.03 0.43 0.18 -0.84 9.70 -0.02 -0.01 -0.00 16716
0.06 0.41 0.12 -0.85 9.67 -0.01 -0.01 0.00 16723
0.04 0.44 0.15 -0.88 9.69 -0.01 -0.01 0.00 16731
0.06 0.44 0.20 -0.84 9.74 -0.01 -0.01 0.00 16738
0.08 0.45 0.16 -0.88 9.73 -0.00 -0.02 0.00 16745
0.08 0.47 0.13 -0.87 9.70 0.01 -0.02 -0.00 16752
0.07 0.43 0.12 -0.84 9.74 0.01 -0.02 0.00 16759
0.06 0.41 0.14 -0.89 9.72 0.02 -0.02 0.00 16766
0.08 0.41 0.17 -0.82 9.75 0.02 -0.02 -0.00 16774
0.10 0.41 0.17 -0.85 9.76 0.02 -0.03 0.00 16781
0.06 0.40 0.07 -0.90 9.68 0.03 -0.02 -0.00 16788
0.07 0.36 0.12 -0.91 9.65 0.03 -0.01 0.00 16795
0.06 0.38 0.08 -0.89 9.65 0.02 -0.01 -0.00 16802
0.08 0.37 0.06 -0.88 9.63 0.03 -0.00 -0.00 16809
0.09 0.33 0.16 -0.81 9.83 0.06 -0.00 -0.01 16817
0.11 0.30 0.11 -0.87 9.79 0.09 -0.01 -0.01 16824
0.13 0.24 0.12 -0.91 9.66 0.10 -0.01 -0.01 16831
0.14 0.23 0.03 -0.82 9.81 0.14 -0.01 -0.02 16838
0.16 0.20 0.03 -0.88 9.86 0.18 -0.01 -0.03 16845
0.19 0.13 0.24 -0.97 9.81 0.22 -0.01 -0.03 16852
0.19 0.15 0.11 -1.00 9.92 0.25 -0.01 -0.03 16860
0.19 0.12 0.09 -1.07 10.05 0.28 -0.02 -0.04 16867
0.21 0.06 0.09 -1.06 10.16 0.33 -0.03 -0.04 16874
0.21 0.05 0.09 -0.96 10.32 0.38 -0.06 -0.05 16881
0.22 0.02 0.25 -0.96 10.72 0.46 -0.10 -0.04 16888
0.24 0.01 0.09 -1.14 11.45 0.59 -0.23 -0.04 16896
0.23 0.01 -0.16 -1.41 11.75 0.72 -0.45 -0.05 16904
0.23 -0.00 -0.51 -1.89 14.67 0.98 -0.75 -0.06 16911
0.28 -0.02 0.94 -1.61 17.82 1.57 -1.34 -0.07 16918
0.24 -0.02 4.96 -1.71 16.64 1.97 -0.77 -0.32 16925
0.25 -0.01 1.09 -1.38 17.15 2.37 -0.84 -0.45 16932
0.28 -0.01 2.78 -1.65 17.38 2.69 -1.38 -0.51 16940
0.28 -0.01 3.80 -2.23 18.10 3.06 -1.61 -0.66 16947
0.26 -0.00 3.78 -2.77 18.50 3.39 -1.94 -0.86 16954
0.21 -0.00 5.06 -2.87 19.07 3.63 -2.27 -1.08 16961
0.20 0.01 5.22 -3.59 18.82 3.86 -2.57 -1.31 16968
0.13 0.01 5.00 -3.85 19.27 3.96 -2.87 -1.55 16975
0.09 0.01 4.40 -3.62 18.66 4.02 -3.12 -1.75 16983
0.09 -0.00 4.51 -3.82 19.94 3.96 -3.42 -1.87 16990
0.07 -0.01 5.96 -3.36 19.54 3.85 -3.86 -2.07 16996
0.05 -0.01 6.22 -2.09 19.69 3.57 -4.28 -2.25 17003
0.03 0.00 5.64 -1.01 19.10 3.21 -4.28 -2.39 17011
0.03 -0.00 5.04 1.18 18.07 2.94 -4.28 -2.34 17017
0.00 0.00 6.31 2.15 17.03 2.46 -4.28 -2.21 17026
0.00 0.00 12.75 4.68 14.84 1.92 -4.28 -1.74 17032
0.00 0.00 25.67 6.73 10.41 1.33 -4.28 -0.59 17039
0.00 0.00 26.29 5.19 20.03 0.26 -3.15 0.51 17046
-0.00 0.00 22.97 5.20 11.85 -0.54 -0.94 0.99 17053
-0.00 0.01 13.79 4.24 9.36 -0.78 0.16 1.32 17060
-0.00 0.01 9.82 3.02 9.15 -0.68 0.12 1.58 17068
-0.00 0.01 10.08 3.01 8.97 -0.47 -0.20 1.72 17075
-0.00 0.00 11.88 4.38 8.24 -0.43 -0.27 1.75 17082
0.00 0.00 13.59 5.50 8.58 -0.58 0.08 1.62 17089
-0.00 0.01 13.57 5.06 8.97 -0.83 0.74 1.40 17096
-0.00 0.01 11.52 4.98 8.95 -1.05 1.37 1.06 17103
-0.00 0.00 9.56 4.75 8.75 -1.27 1.71 0.75 17111
0.00 0.00 8.05 4.53 8.82 -1.44 1.94 0.35 17118
0.00 0.00 7.47 4.13 9.20 -1.58 2.14 -0.07 17125
-0.00 0.01 6.90 3.79 9.77 -1.74 2.43 -0.43 17132
-0.00 0.01 5.86 3.23 10.31 -1.90 2.77 -0.82 17139
-0.00 0.02 4.42 3.03 10.97 -1.96 3.07 -1.15 17146
0.00 0.01 2.71 2.75 11.73 -1.98 3.43 -1.40 17154
-0.00 0.01 1.03 2.67 12.48 -1.98 3.64 -1.61 17161
-0.00 0.01 -0.61 2.61 13.03 -1.98 3.67 -1.70 17168
-0.00 0.01 -1.85 2.54 13.32 -2.00 3.61 -1.71 17175
-0.00 0.01 -2.22 2.19 13.56 -2.03 3.50 -1.68 17182
-0.00 0.03 -1.95 1.67 13.53 -2.06 3.40 -1.63 17189
-0.00 0.02 -1.74 0.94 13.42 -2.07 3.41 -1.57 17197
-0.00 0.01 -1.78 0.09 13.30 -2.00 3.48 -1.54 17204
-0.00 0.00 -1.75 -0.49 13.35 -1.88 3.58 -1.52 17211
-0.00 0.02 -1.94 -1.01 13.47 -1.77 3.70 -1.53 17218
-0.00 0.02 -2.39 -1.10 13.72 -1.68 3.84 -1.52 17225
-0.00 0.02 -3.40 -1.19 14.19 -1.64 3.89 -1.50 17232
0.00 0.00 -4.31 -1.46 14.54 -1.62 3.89 -1.43 17240
-0.00 0.00 -5.58 -1.62 14.74 -1.61 3.81 -1.32 17247
0.00 0.00 -6.54 -1.91 14.86 -1.58 3.72 -1.23 17254
-0.00 0.01 -7.53 -2.22 14.89 -1.56 3.60 -1.18 17261
-0.00 0.00 -8.58 -2.26 15.03 -1.56 3.47 -1.16 17268
0.00 -0.00 -9.62 -2.28 15.01 -1.62 3.34 -1.16 17275
0.00 0.00 -10.74 -2.42 14.75 -1.73 3.11 -1.16 17283
0.00 0.00 -11.42 -2.76 14.16 -1.83 2.85 -1.14 17290
0.00 0.00 -11.72 -3.29 13.41 -1.91 2.56 -1.09 17297
0.00 0.00 -11.75 -4.30 12.38 -1.95 2.31 -0.98 17304
-0.00 0.01 -11.48 -5.15 11.41 -1.94 2.08 -0.79 17312
-0.00 0.00 -10.61 -5.89 10.54 -1.90 1.77 -0.58 17319
-0.00 0.00 -9.24 -6.48 9.83 -1.84 1.49 -0.26 17326
-0.00 0.01 -7.77 -6.91 9.41 -1.75 1.31 0.04 17333
0.00 0.00 -6.47 -7.69 9.01 -1.66 1.19 0.39 17340
-0.00 0.01 -5.87 -8.45 8.59 -1.54 1.18 0.69 17347
-0.00 0.02 -5.81 -8.71 8.33 -1.42 1.18 0.92 17354
-0.00 0.01 -6.19 -8.79 7.97 -1.32 1.12 1.14 17361
0.00 0.00 -6.73 -8.69 7.66 -1.20 1.03 1.30 17369
0.00 0.00 -7.28 -8.45 7.52 -1.09 0.93 1.46 17376
0.00 0.00 -7.70 -8.30 7.30 -1.01 0.89 1.57 17383
-0.00 0.00 -8.73 -8.05 6.84 -0.94 0.87 1.64 17390
-0.00 0.01 -9.16 -7.31 6.45 -0.87 0.85 1.68 17397
0.00 -0.00 -9.21 -6.27 6.09 -0.83 0.85 1.69 17404
0.00 0.00 -9.66 -5.03 6.09 -0.81 0.83 1.69 17412
0.00 0.00 -9.38 -3.73 5.71 -0.83 0.78 1.67 17419
0.00 0.00 -15.53 -6.96 -0.53 -0.84 0.55 1.67 17426
-0.00 0.02 -57.07 -23.06 -1.19 0.51 -4.28 2.98 17434
0.02 0.09 -3.67 -17.28 4.03 1.17 -4.28 2.77 17441
-0.02 0.56 -28.29 -1.08 55.63 3.26 -3.98 3.75 17448
-0.08 1.09 -26.95 1.77 33.95 3.25 -1.01 3.73 17456
-0.09 1.21 -19.97 -2.59 28.06 3.34 -1.46 1.94 17463
-0.08 1.19 -13.80 -5.66 19.45 2.61 -1.27 0.53 17470
-0.07 1.14 2.01 -1.80 11.85 2.11 -0.77 0.11 17477
-0.04 1.00 6.70 -0.18 8.52 2.16 -0.29 0.52 17483
-0.05 0.96 6.43 2.29 7.04 2.52 -0.08 1.21 17490
-0.08 0.85 -12.10 -6.97 20.28 1.41 -0.67 1.47 17499
-0.02 0.74 -8.53 -12.01 17.30 -0.09 -0.84 0.21 17506
-0.02 0.73 0.33 -1.17 8.63 0.23 -0.30 -0.04 17512
0.05 0.64 0.80 -1.19 10.76 0.07 -0.25 0.06 17519
